Timestamp,Accel_X,Accel_Y,Accel_Z,Gyro_X,Gyro_Y,Gyro_Z
1705916682252,-4.6633983,-4.2394924,-7.474097,0.0,0.0,0.0
1705916682262,-4.6633983,-4.2394924,-7.474097,8.1183657E-4,0.0026814875,-9.937831E-4
1705916682429,-4.647477,-4.243276,-7.4876347,8.1183657E-4,0.0026814875,-9.937831E-4
1705916682439,-4.647477,-4.243276,-7.4876347,6.566079E-4,0.0031024755,-0.0018085332
1705916682738,-4.6081285,-4.268068,-7.4914193,6.566079E-4,0.0031024755,-0.0018085332
1705916682753,-4.6081285,-4.268068,-7.4914193,-7.9368416E-5,0.0021826208,-0.0020330537
1705916682916,-4.63901,-4.2757964,-7.5224767,-7.9368416E-5,0.0021826208,-0.0020330537
1705916682931,-4.63901,-4.2757964,-7.5224767,-1.9888114E-4,0.0024222485,-8.8817027E-4
1705916683172,-4.658244,-4.2999616,-7.4810014,-1.9888114E-4,0.0024222485,-8.8817027E-4
1705916683193,-4.658244,-4.2999616,-7.4810014,9.903805E-4,0.0017696175,-0.0020350334
1705916683486,-4.6575346,-4.2348933,-7.507511,9.903805E-4,0.0017696175,-0.0020350334
1705916683497,-4.6575346,-4.2348933,-7.507511,-1.5634531E-4,0.0028331438,-0.001359639
1705916683864,-4.644608,-4.2439947,-7.500473,-1.5634531E-4,0.0028331438,-0.001359639
1705916683870,-4.644608,-4.2439947,-7.500473,-1.6713995E-4,0.0019002757,-0.0013808463
1705916684098,-4.643038,-4.2645445,-7.4997153,-1.6713995E-4,0.0019002757,-0.0013808463
1705916684118,-4.643038,-4.2645445,-7.4997153,-8.9132506E-4,0.004030029,-7.601265E-4
1705916684364,-4.6707425,-4.2501974,-7.5151033,-8.9132506E-4,0.004030029,-7.601265E-4
1705916684378,-4.6707425,-4.2501974,-7.5151033,5.7354177E-5,0.0020125278,-4.3297117E-4
1705916684769,-4.6632614,-4.233049,-7.499757,5.7354177E-5,0.0020125278,-4.3297117E-4
1705916684787,-4.6632614,-4.233049,-7.499757,2.8126303E-4,0.002552246,-8.510163E-4
1705916684998,-4.6386337,-4.2518477,-7.5018187,2.8126303E-4,0.002552246,-8.510163E-4
1705916685012,-4.6386337,-4.2518477,-7.5018187,1.1676771E-4,0.0021724154,-0.0016839716
1705916685315,-4.6520667,-4.2586217,-7.497831,1.1676771E-4,0.0021724154,-0.0016839716
1705916685329,-4.6520667,-4.2586217,-7.497831,7.4562535E-4,0.0025528034,-0.0011119078
1705916685718,-4.6822824,-4.268429,-7.52372,7.4562535E-4,0.0025528034,-0.0011119078
1705916685727,-4.6822824,-4.268429,-7.52372,9.5003156E-4,0.0012266766,-0.0015686536
1705916685896,-4.6487064,-4.263091,-7.517777,9.5003156E-4,0.0012266766,-0.0015686536
1705916685905,-4.6487064,-4.263091,-7.517777,-5.803588E-4,0.0033755272,-0.0015651274
1705916686161,-4.61785,-4.2531815,-7.496728,-5.803588E-4,0.0033755272,-0.0015651274
1705916686172,-4.61785,-4.2531815,-7.496728,7.2732844E-5,0.0033415456,-4.0275822E-4
1705916686469,-4.6565614,-4.2469378,-7.4938426,7.2732844E-5,0.0033415456,-4.0275822E-4
1705916686482,-4.6565614,-4.2469378,-7.4938426,-2.822751E-4,0.0016048299,4.906334E-5
1705916686826,-4.6717525,-4.263297,-7.4969916,-2.822751E-4,0.0016048299,4.906334E-5
1705916686839,-4.6717525,-4.263297,-7.4969916,-1.8192519E-4,0.0038875756,-8.5485855E-4
1705916687057,-4.6388,-4.275898,-7.5181155,-1.8192519E-4,0.0038875756,-8.5485855E-4
1705916687072,-4.6388,-4.275898,-7.5181155,-5.5449654E-4,0.0029612705,-9.806228E-4
1705916687381,-4.641275,-4.236877,-7.5144625,-5.5449654E-4,0.0029612705,-9.806228E-4
1705916687395,-4.641275,-4.236877,-7.5144625,-1.09198765E-4,0.0033448813,-4.5689355E-4
1705916687762,-4.645175,-4.2231545,-7.471532,-1.09198765E-4,0.0033448813,-4.5689355E-4
1705916687774,-4.645175,-4.2231545,-7.471532,6.1468163E-4,0.0024232252,-0.0013452522
1705916687978,-4.6478634,-4.2395754,-7.4783454,6.1468163E-4,0.0024232252,-0.0013452522
1705916687992,-4.6478634,-4.2395754,-7.4783454,-2.875447E-4,0.0017680831,-0.0013170599
1705916688306,-4.6336255,-4.2647624,-7.4949255,-2.875447E-4,0.0017680831,-0.0013170599
1705916688314,-4.6336255,-4.2647624,-7.4949255,-2.829114E-4,0.0021684922,-0.0013079573
1705916688705,-4.6258097,-4.238115,-7.5108633,-2.829114E-4,0.0021684922,-0.0013079573
1705916688719,-4.6258097,-4.238115,-7.5108633,6.1503553E-4,0.0012193879,-0.0010775165
1705916688883,-4.6467986,-4.280134,-7.4565988,6.1503553E-4,0.0012193879,-0.0010775165
1705916688895,-4.6467986,-4.280134,-7.4565988,-1.0212504E-4,0.0025413448,-1.7634161E-4
1705916689133,-4.656901,-4.2434654,-7.4745026,-1.0212504E-4,0.0025413448,-1.7634161E-4
1705916689146,-4.656901,-4.2434654,-7.4745026,4.9057388E-5,0.003623757,-9.923517E-4
1705916689465,-4.631386,-4.263469,-7.467012,4.9057388E-5,0.003623757,-9.923517E-4
1705916689477,-4.631386,-4.263469,-7.467012,-3.4787072E-4,0.0029441912,-3.3450685E-4
1705916689821,-4.627874,-4.2687874,-7.4926715,-3.4787072E-4,0.0029441912,-3.3450685E-4
1705916689834,-4.627874,-4.2687874,-7.4926715,2.3562195E-4,0.0018729909,-3.8564822E-4
1705916690044,-4.663185,-4.248431,-7.467755,2.3562195E-4,0.0018729909,-3.8564822E-4
1705916690057,-4.663185,-4.248431,-7.467755,1.7338432E-5,0.0022974575,-0.0013213219
1705916690359,-4.6389356,-4.253716,-7.4624853,1.7338432E-5,0.0022974575,-0.0013213219
1705916690371,-4.6389356,-4.253716,-7.4624853,-6.8778207E-4,0.004044157,-0.001485223
1705916690771,-4.5990124,-4.257344,-7.495107,-6.8778207E-4,0.004044157,-0.001485223
1705916690783,-4.5990124,-4.257344,-7.495107,-3.0289454E-4,0.0021511407,-5.345263E-4
1705916690949,-4.6420035,-4.2536263,-7.50782,-3.0289454E-4,0.0021511407,-5.345263E-4
1705916690957,-4.6420035,-4.2536263,-7.50782,-2.4131661E-4,0.0018794158,-4.2550417E-4
1705916691288,-4.671119,-4.2413864,-7.5157547,-2.4131661E-4,0.0018794158,-4.2550417E-4
1705916691301,-4.671119,-4.2413864,-7.5157547,-3.1557103E-4,0.0022900603,-8.2647114E-4
1705916691695,-4.673367,-4.219734,-7.5217032,-3.1557103E-4,0.0022900603,-8.2647114E-4
1705916691706,-4.673367,-4.219734,-7.5217032,5.0076534E-4,0.0019149617,-0.002366834
1705916691873,-4.6187835,-4.251179,-7.4983854,5.0076534E-4,0.0019149617,-0.002366834
1705916691879,-4.6187835,-4.251179,-7.4983854,-8.830332E-5,0.002026237,-9.618772E-4
1705916692119,-4.646947,-4.2570705,-7.4827332,-8.830332E-5,0.002026237,-9.618772E-4
1705916692131,-4.646947,-4.2570705,-7.4827332,9.743718E-4,0.0024167704,-0.0012444088
1705916692438,-4.6681833,-4.2625966,-7.48665,9.743718E-4,0.0024167704,-0.0012444088
1705916692450,-4.6681833,-4.2625966,-7.48665,2.3847373E-4,0.003213251,-6.560859E-4
1705916692798,-4.646752,-4.2504487,-7.516265,2.3847373E-4,0.003213251,-6.560859E-4
1705916692810,-4.646752,-4.2504487,-7.516265,-3.5022094E-5,0.003365741,-0.0014122357
1705916693027,-4.631721,-4.2430534,-7.5054455,-3.5022094E-5,0.003365741,-0.0014122357
1705916693038,-4.631721,-4.2430534,-7.5054455,3.7270016E-4,0.0028303359,-0.0015054077
1705916693331,-4.629595,-4.251523,-7.477754,3.7270016E-4,0.0028303359,-0.0015054077
1705916693341,-4.629595,-4.251523,-7.477754,1.7068518E-4,0.0029482571,-7.773094E-4
1705916693754,-4.6512847,-4.259775,-7.49046,1.7068518E-4,0.0029482571,-7.773094E-4
1705916693765,-4.6512847,-4.259775,-7.49046,-1.6866796E-4,0.0017682259,-0.0013838481
1705916693932,-4.6450667,-4.2653704,-7.5053225,-1.6866796E-4,0.0017682259,-0.0013838481
1705916693943,-4.6450667,-4.2653704,-7.5053225,-8.8616036E-4,0.002445748,-0.001572055
1705916694272,-4.642178,-4.25473,-7.502152,-8.8616036E-4,0.002445748,-0.001572055
1705916694282,-4.642178,-4.25473,-7.502152,-7.349511E-4,0.0032328528,-0.0010228567
1705916694518,-4.6422606,-4.252158,-7.4863434,-7.349511E-4,0.0032328528,-0.0010228567
1705916694524,-4.6422606,-4.252158,-7.4863434,6.1315356E-4,0.0022911753,-0.001348254
1705916694870,-4.6284814,-4.265393,-7.469821,6.1315356E-4,0.0022911753,-0.001348254
1705916694886,-4.6284814,-4.265393,-7.469821,8.354965E-5,0.0024261419,-0.001203197
1705916695103,-4.6588197,-4.2590203,-7.5198197,8.354965E-5,0.0024261419,-0.001203197
1705916695113,-4.6588197,-4.2590203,-7.5198197,2.8895237E-4,0.0032167549,-8.3590986E-4
1705916695426,-4.6439133,-4.263502,-7.5451336,2.8895237E-4,0.0032167549,-8.3590986E-4
1705916695431,-4.6439133,-4.263502,-7.5451336,-1.10726774E-4,0.0032128317,-4.598955E-4
1705916695796,-4.649834,-4.2407923,-7.509768,-1.10726774E-4,0.0032128317,-4.598955E-4
1705916695805,-4.649834,-4.2407923,-7.509768,7.0461765E-4,0.002273958,-6.374371E-4
1705916696010,-4.639695,-4.21842,-7.467749,7.0461765E-4,0.002273958,-6.374371E-4
1705916696019,-4.639695,-4.21842,-7.467749,-0.0014899923,0.002696051,-4.627566E-4
1705916696329,-4.648774,-4.26838,-7.499966,-0.0014899923,0.002696051,-4.627566E-4
1705916696339,-4.648774,-4.26838,-7.499966,-5.5602455E-4,0.0028292206,-9.836247E-4
1705916696746,-4.653804,-4.262121,-7.514885,-5.5602455E-4,0.0028292206,-9.836247E-4
1705916696757,-4.653804,-4.262121,-7.514885,-3.8081277E-4,0.0024255842,-9.423056E-4
1705916696924,-4.6533155,-4.256467,-7.5060296,-3.8081277E-4,0.0024255842,-9.423056E-4
1705916696932,-4.6533155,-4.256467,-7.5060296,-1.3878196E-4,0.002022733,-7.820532E-4
1705916697186,-4.6588945,-4.246635,-7.5059695,-1.3878196E-4,0.002022733,-7.820532E-4
1705916697196,-4.6588945,-4.246635,-7.5059695,3.856303E-4,0.001619516,-9.3692454E-4
1705916697494,-4.6309824,-4.252246,-7.4882007,3.856303E-4,0.001619516,-9.3692454E-4
1705916697504,-4.6309824,-4.252246,-7.4882007,1.152686E-4,0.003752441,-8.7422703E-4
1705916697853,-4.645194,-4.2672725,-7.507547,1.152686E-4,0.003752441,-8.7422703E-4
1705916697863,-4.645194,-4.2672725,-7.507547,-4.439187E-4,0.0025652593,-0.0010543297
1705916698101,-4.6473417,-4.264321,-7.5073752,-4.439187E-4,0.0025652593,-0.0010543297
1705916698110,-4.6473417,-4.264321,-7.5073752,3.9948092E-4,0.0028164838,-9.097135E-4
1705916698410,-4.6623955,-4.240909,-7.498233,3.9948092E-4,0.0028164838,-9.097135E-4
1705916698421,-4.6623955,-4.240909,-7.498233,2.3536841E-4,0.0029448916,-6.621866E-4
1705916698777,-4.6492977,-4.239501,-7.480899,2.3536841E-4,0.0029448916,-6.621866E-4
1705916698786,-4.6492977,-4.239501,-7.480899,-7.2385196E-4,0.002957624,-7.3401065E-4
1705916699007,-4.629756,-4.2569222,-7.4979906,-7.2385196E-4,0.002957624,-7.3401065E-4
1705916699016,-4.629756,-4.2569222,-7.4979906,-5.3077185E-4,0.0026833187,-3.9093243E-4
1705916699320,-4.637102,-4.262356,-7.513071,-5.3077185E-4,0.0026833187,-3.9093243E-4
1705916699329,-4.637102,-4.262356,-7.513071,4.441522E-4,0.0010836913,-8.3390623E-4
1705916699738,-4.6606827,-4.267987,-7.5111914,4.441522E-4,0.0010836913,-8.3390623E-4
1705916699743,-4.6606827,-4.267987,-7.5111914,-4.085855E-4,0.0018756606,-1.7517843E-4
1705916699915,-4.672355,-4.241821,-7.496025,-4.085855E-4,0.0018756606,-1.7517843E-4
1705916699923,-4.672355,-4.241821,-7.496025,8.7091693E-4,0.0020135045,-8.900531E-4
1705916700170,-4.6394854,-4.2518487,-7.5013404,8.7091693E-4,0.0020135045,-8.900531E-4
1705916700178,-4.6394854,-4.2518487,-7.5013404,2.7011454E-4,0.0028232152,-0.0011399591
1705916700497,-4.624557,-4.249106,-7.500683,2.7011454E-4,0.0028232152,-0.0011399591
1705916700506,-4.624557,-4.249106,-7.500683,1.8791686E-4,0.0014934118,-0.0012891054
1705916700864,-4.677476,-4.2702904,-7.4872565,1.8791686E-4,0.0014934118,-0.0012891054
1705916700874,-4.677476,-4.2702904,-7.4872565,2.7199642E-4,0.0017514275,-8.692215E-4
1705916701059,-4.643217,-4.252108,-7.488045,2.7199642E-4,0.0017514275,-8.692215E-4
1705916701068,-4.643217,-4.252108,-7.488045,1.5189665E-4,0.0025589773,-0.001081262
1705916701393,-4.625163,-4.2509828,-7.5037584,1.5189665E-4,0.0025589773,-0.001081262
1705916701403,-4.625163,-4.2509828,-7.5037584,-3.7182856E-4,0.0025862278,-0.0020133853
1705916701813,-4.630189,-4.252424,-7.480808,-3.7182856E-4,0.0025862278,-0.0020133853
1705916701821,-4.630189,-4.252424,-7.480808,1.5810423E-5,0.0021654076,-0.0013243238
1705916701964,-4.653651,-4.261832,-7.484708,1.5810423E-5,0.0021654076,-0.0013243238
1705916701969,-4.653651,-4.261832,-7.484708,-8.371929E-5,0.0024223868,-9.528714E-4
1705916702312,-4.643059,-4.2706313,-7.489797,-8.371929E-5,0.0024223868,-9.528714E-4
1705916702320,-4.643059,-4.2706313,-7.489797,-1.4585571E-4,0.00282627,-0.0010626052
1705916702583,-4.6322556,-4.24791,-7.5064073,-1.4585571E-4,0.00282627,-0.0010626052
1705916702591,-4.6322556,-4.24791,-7.5064073,-4.8207468E-4,0.0036266735,-8.5029664E-4
1705916702940,-4.625175,-4.2513905,-7.4858365,-4.8207468E-4,0.0036266735,-8.5029664E-4
1705916702945,-4.625175,-4.2513905,-7.4858365,-2.9983852E-4,0.0024152405,-5.285225E-4
1705916703141,-4.647595,-4.239499,-7.4818554,-2.9983852E-4,0.0024152405,-5.285225E-4
1705916703145,-4.647595,-4.239499,-7.4818554,6.4797763E-4,0.0017379948,-4.6971772E-4
1705916703477,-4.6675777,-4.261289,-7.501519,6.4797763E-4,0.0017379948,-4.6971772E-4
1705916703485,-4.6675777,-4.261289,-7.501519,-5.6870107E-4,0.00296814,-0.0012755695
1705916703876,-4.6360083,-4.2548246,-7.501139,-5.6870107E-4,0.00296814,-0.0012755695
1705916703885,-4.6360083,-4.2548246,-7.501139,5.309339E-4,0.0028096442,-6.757543E-4
1705916704077,-4.648002,-4.2430224,-7.4985375,5.309339E-4,0.0028096442,-6.757543E-4
1705916704088,-4.648002,-4.2430224,-7.4985375,-7.536887E-4,0.0027073761,-0.0013357088
1705916704366,-4.643713,-4.2353854,-7.4928803,-7.536887E-4,0.0027073761,-0.0013357088
1705916704374,-4.643713,-4.2353854,-7.4928803,3.7142573E-4,0.0016263855,-0.0012318713
1705916704794,-4.642302,-4.2649,-7.484451,3.7142573E-4,0.0016263855,-0.0012318713
1705916704805,-4.642302,-4.2649,-7.484451,5.1464274E-4,0.0028166221,-9.7441464E-4
1705916704972,-4.6611495,-4.266986,-7.5120206,5.1464274E-4,0.0028166221,-9.7441464E-4
1705916704977,-4.6611495,-4.266986,-7.5120206,-0.0015657236,0.002838449,-8.756249E-4
1705916705279,-4.6377254,-4.279156,-7.5042477,-0.0015657236,0.002838449,-8.756249E-4
1705916705286,-4.6377254,-4.279156,-7.5042477,1.3866159E-4,0.0028300548,-0.0013739185
1705916705541,-4.6465497,-4.2597947,-7.492,1.3866159E-4,0.0028300548,-0.0013739185
1705916705545,-4.6465497,-4.2597947,-7.492,1.7068518E-4,0.0029482571,-7.773094E-4
1705916705897,-4.6422944,-4.255087,-7.48641,1.7068518E-4,0.0029482571,-7.773094E-4
1705916705902,-4.6422944,-4.255087,-7.48641,5.152236E-4,8.361918E-4,-0.001795349
1705916706142,-4.64781,-4.2586164,-7.5002227,5.152236E-4,8.361918E-4,-0.001795349
1705916706149,-4.64781,-4.2586164,-7.5002227,-2.2438957E-4,0.0016326676,-0.0012049391
1705916706457,-4.6341486,-4.2686424,-7.495865,-2.2438957E-4,0.0016326676,-0.0012049391
1705916706464,-4.6341486,-4.2686424,-7.495865,-3.2694632E-4,0.0033376224,-2.6743888E-5
1705916706819,-4.6420393,-4.251852,-7.499905,-3.2694632E-4,0.0033376224,-2.6743888E-5
1705916706827,-4.6420393,-4.251852,-7.499905,3.057343E-5,0.0020263798,-0.0010286653
1705916707037,-4.6491594,-4.236623,-7.478652,3.057343E-5,0.0020263798,-0.0010286653
1705916707044,-4.6491594,-4.236623,-7.478652,6.211969E-4,0.0017518469,-0.001065412
1705916707343,-4.6437197,-4.2493324,-7.480959,6.211969E-4,0.0017518469,-0.001065412
1705916707348,-4.6437197,-4.2493324,-7.480959,-4.4549597E-4,0.0024289498,-0.0010574284
1705916707791,-4.65596,-4.26428,-7.504772,-4.4549597E-4,0.0024289498,-0.0010574284
1705916707803,-4.65596,-4.26428,-7.504772,5.3267577E-6,0.003908682,-0.0018786154
1705916707969,-4.6327963,-4.267283,-7.5133924,5.3267577E-6,0.003908682,-0.0018786154
1705916707979,-4.6327963,-4.267283,-7.5133924,-1.3572595E-4,0.0022868328,-7.760494E-4
1705916708275,-4.6420875,-4.2469206,-7.5019746,-1.3572595E-4,0.0022868328,-7.760494E-4
1705916708281,-4.6420875,-4.2469206,-7.5019746,-3.6141637E-4,0.0026869653,-6.3754455E-4
1705916708536,-4.6586356,-4.2510996,-7.4815936,-3.6141637E-4,0.0026869653,-6.3754455E-4
1705916708544,-4.6586356,-4.2510996,-7.4815936,6.1625894E-4,0.0025595347,-0.0013421534
1705916708893,-4.6411543,-4.2489223,-7.500317,6.1625894E-4,0.0025595347,-0.0013421534
1705916708904,-4.6411543,-4.2489223,-7.500317,5.77798E-4,0.0026812067,-8.6229376E-4
1705916709132,-4.6478386,-4.275085,-7.5062895,5.77798E-4,0.0026812067,-8.6229376E-4
1705916709136,-4.6478386,-4.275085,-7.5062895,2.7968577E-4,0.0024159364,-8.5411506E-4
1705916709438,-4.647446,-4.26427,-7.5095553,2.7968577E-4,0.0024159364,-8.5411506E-4
1705916709444,-4.647446,-4.26427,-7.5095553,-3.7001813E-4,0.0033584523,-9.2109846E-4
1705916709806,-4.656173,-4.254772,-7.4931693,-3.7001813E-4,0.0033584523,-9.2109846E-4
1705916709811,-4.656173,-4.254772,-7.4931693,-3.2886746E-5,0.0012220531,-8.6495955E-4
1705916710029,-4.645605,-4.26139,-7.5082655,-3.2886746E-5,0.0012220531,-8.6495955E-4
1705916710036,-4.645605,-4.26139,-7.5082655,2.4333375E-4,0.002837067,-0.0017356535
1705916710338,-4.653025,-4.2544374,-7.5094953,2.4333375E-4,0.002837067,-0.0017356535
1705916710346,-4.653025,-4.2544374,-7.5094953,-4.4239068E-4,0.002697309,-0.0010513278
1705916710754,-4.6532207,-4.261628,-7.493909,-4.4239068E-4,0.002697309,-0.0010513278
1705916710762,-4.6532207,-4.261628,-7.493909,6.934517E-5,0.0024330113,-0.0014981439
1705916710933,-4.6550817,-4.2436767,-7.5091457,6.934517E-5,0.0024330113,-0.0014981439
1705916710940,-4.6550817,-4.2436767,-7.5091457,-4.5687126E-4,0.0034765117,-2.577012E-4
1705916711188,-4.640461,-4.26202,-7.483161,-4.5687126E-4,0.0034765117,-2.577012E-4
1705916711192,-4.640461,-4.26202,-7.483161,6.7817164E-5,0.0023009614,-0.0015011458
1705916711504,-4.6434174,-4.2468967,-7.502348,6.7817164E-5,0.0023009614,-0.0015011458
1705916711512,-4.6434174,-4.2468967,-7.502348,2.6395326E-4,0.0022907562,-0.0011520637
1705916711861,-4.6381083,-4.284292,-7.4929776,2.6395326E-4,0.0022907562,-0.0011520637
1705916711869,-4.6381083,-4.284292,-7.4929776,-0.0017221979,0.0037675619,-6.0409197E-4
1705916712103,-4.6458206,-4.275235,-7.500705,-0.0017221979,0.0037675619,-6.0409197E-4
1705916712111,-4.6458206,-4.275235,-7.500705,-6.9959206E-6,0.0028437641,-0.0019028245
1705916712419,-4.6603937,-4.2612553,-7.5066752,-6.9959206E-6,0.0028437641,-0.0019028245
1705916712426,-4.6603937,-4.2612553,-7.5066752,-1.5817836E-4,0.0017613518,-0.0010868143
1705916712786,-4.6510606,-4.2683063,-7.502041,-1.5817836E-4,0.0017613518,-0.0010868143
1705916712793,-4.6510606,-4.2683063,-7.502041,2.3231239E-4,0.0026807918,-6.681904E-4
1705916713015,-4.6330194,-4.2628856,-7.4918494,2.3231239E-4,0.0026807918,-6.681904E-4
1705916713019,-4.6330194,-4.2628856,-7.4918494,-6.1790744E-4,0.0021612034,-8.1682013E-4
1705916713331,-4.6376514,-4.2582135,-7.480146,-6.1790744E-4,0.0021612034,-8.1682013E-4
1705916713336,-4.6376514,-4.2582135,-7.480146,-2.1787491E-5,9.4682426E-4,-5.761135E-4
1705916713736,-4.653959,-4.2518663,-7.4932084,-2.1787491E-5,9.4682426E-4,-5.761135E-4
1705916713744,-4.653959,-4.2518663,-7.4932084,-6.951476E-5,0.002415517,-6.579246E-4
1705916713914,-4.6502557,-4.235317,-7.4925637,-6.951476E-5,0.002415517,-6.579246E-4
1705916713921,-4.6502557,-4.235317,-7.4925637,5.0725846E-4,0.0030918557,-0.0012653478
1705916714187,-4.6436872,-4.2422705,-7.490855,5.0725846E-4,0.0030918557,-0.0012653478
1705916714194,-4.6436872,-4.2422705,-7.490855,-3.9776874E-4,9.6025696E-4,-9.756173E-4
1705916714483,-4.6495466,-4.2615476,-7.4993324,-3.9776874E-4,9.6025696E-4,-9.756173E-4
1705916714490,-4.6495466,-4.2615476,-7.4993324,-0.001017028,0.0020251218,-4.4009415E-4
1705916714840,-4.6637087,-4.253449,-7.5045843,-0.001017028,0.0020251218,-4.4009415E-4
1705916714851,-4.6637087,-4.253449,-7.5045843,2.6430708E-4,0.0010869186,-8.8432804E-4
1705916715075,-4.643878,-4.263569,-7.499215,2.6430708E-4,0.0010869186,-8.8432804E-4
1705916715083,-4.643878,-4.263569,-7.499215,-3.9191195E-4,0.0027008129,-0.0012311516
1705916715364,-4.6479163,-4.253863,-7.49442,-3.9191195E-4,0.0027008129,-0.0012311516
1705916715372,-4.6479163,-4.253863,-7.49442,2.1657985E-4,0.0025556115,-9.6613914E-4
1705916715811,-4.6708255,-4.248194,-7.51724,2.1657985E-4,0.0025556115,-9.6613914E-4
1705916715815,-4.6708255,-4.248194,-7.51724,1.8326139E-4,0.0029412748,-4.7656192E-4
1705916715995,-4.669381,-4.24259,-7.5066824,1.8326139E-4,0.0029412748,-4.7656192E-4
1705916716005,-4.669381,-4.24259,-7.5066824,-2.7493967E-4,0.003473176,-2.0356587E-4
1705916716302,-4.648629,-4.2509856,-7.491695,-2.7493967E-4,0.003473176,-2.0356587E-4
1705916716310,-4.648629,-4.2509856,-7.491695,1.8914026E-4,0.0028335587,-0.0015537423
1705916716737,-4.6467385,-4.253607,-7.5062795,1.8914026E-4,0.0028335587,-0.0015537423
1705916716741,-4.6467385,-4.253607,-7.5062795,-1.5048904E-4,0.0024258608,-0.0010717078
1705916716903,-4.642972,-4.254553,-7.5095453,-1.5048904E-4,0.0024258608,-0.0010717078
1705916716911,-4.642972,-4.254553,-7.5095453,5.298207E-6,0.0018727144,-2.56246E-4
1705916717151,-4.645608,-4.2519836,-7.4923005,5.298207E-6,0.0018727144,-2.56246E-4
1705916717158,-4.645608,-4.2519836,-7.4923005,-1.6403466E-4,0.002168635,-0.0013747455
1705916717479,-4.6418133,-4.2639484,-7.4835787,-1.6403466E-4,0.002168635,-0.0013747455
1705916717486,-4.6418133,-4.2639484,-7.4835787,-6.9399265E-4,0.0035074386,-0.0014974243
1705916717836,-4.6472135,-4.2624187,-7.50515,-6.9399265E-4,0.0035074386,-0.0014974243
1705916717844,-4.6472135,-4.2624187,-7.50515,-1.997443E-4,0.0037625036,-0.0011565209
1705916718082,-4.640566,-4.262538,-7.5032864,-1.997443E-4,0.0037625036,-0.0011565209
1705916718089,-4.640566,-4.262538,-7.5032864,-2.1639524E-4,0.0032369187,-0.0014656594
1705916718376,-4.637829,-4.2510495,-7.4944034,-2.1639524E-4,0.0032369187,-0.0014656594
1705916718382,-4.637829,-4.2510495,-7.4944034,1.7867736E-4,0.0025451253,-4.8556773E-4
1705916718765,-4.654763,-4.2526655,-7.5006227,1.7867736E-4,0.0025451253,-4.8556773E-4
1705916718775,-4.654763,-4.2526655,-7.5006227,2.9908214E-4,0.0026773177,-5.49354E-4
1705916718975,-4.652484,-4.267256,-7.504572,2.9908214E-4,0.0026773177,-5.49354E-4
1705916718980,-4.652484,-4.267256,-7.504572,-7.423359E-4,0.0013602468,-7.7032426E-4
1705916719287,-4.65376,-4.2535133,-7.506815,-7.423359E-4,0.0013602468,-7.7032426E-4
1705916719294,-4.65376,-4.2535133,-7.506815,4.8087546E-5,0.0012117095,-4.5117643E-4
1705916719708,-4.6584806,-4.2613544,-7.5032706,4.8087546E-5,0.0012117095,-4.5117643E-4
1705916719713,-4.6584806,-4.2613544,-7.5032706,-2.625456E-4,0.0026940817,-0.001000906
1705916719885,-4.6423573,-4.242294,-7.4904823,-2.625456E-4,0.0026940817,-0.001000906
1705916719891,-4.6423573,-4.242294,-7.4904823,1.4603988E-4,8.184211E-4,-8.257276E-4
1705916720136,-4.6323123,-4.252222,-7.488574,1.4603988E-4,8.184211E-4,-8.257276E-4
1705916720144,-4.6323123,-4.252222,-7.488574,-1.7330129E-4,0.0013678167,-0.0013929508
1705916720466,-4.6454654,-4.258512,-7.5060177,-1.7330129E-4,0.0013678167,-0.0013929508
1705916720473,-4.6454654,-4.258512,-7.5060177,4.4074227E-4,0.002023429,-0.0011076459
1705916720834,-4.657862,-4.263204,-7.508155,4.4074227E-4,0.002023429,-0.0011076459
1705916720841,-4.657862,-4.263204,-7.508155,5.217166E-4,0.0020130854,-6.938627E-4
1705916721032,-4.649987,-4.267431,-7.4981356,5.217166E-4,0.0020130854,-6.938627E-4
1705916721039,-4.649987,-4.267431,-7.4981356,-7.183062E-4,0.002022037,-4.5646064E-4
1705916721359,-4.6404996,-4.2519774,-7.4951706,-7.183062E-4,0.002022037,-4.5646064E-4
1705916721364,-4.6404996,-4.2519774,-7.4951706,1.1060637E-4,0.0016399565,-0.0016960762
1705916721782,-4.6466255,-4.243275,-7.488113,1.1060637E-4,0.0016399565,-0.0016960762
1705916721788,-4.6466255,-4.243275,-7.488113,4.3432735E-4,0.0025628707,-0.0013962887
1705916721955,-4.6468515,-4.263369,-7.5065017,4.3432735E-4,0.0025628707,-0.0013962887
1705916721962,-4.6468515,-4.263369,-7.5065017,-2.5948958E-4,0.0029581815,-9.949021E-4
1705916722286,-4.6540923,-4.2682843,-7.5014563,-2.5948958E-4,0.0029581815,-9.949021E-4
1705916722299,-4.6540923,-4.2682843,-7.5014563,-3.4937618E-4,0.0031117087,-0.0017026205
1705916722699,-4.654277,-4.242877,-7.5017304,-3.4937618E-4,0.0031117087,-0.0017026205
1705916722709,-4.654277,-4.242877,-7.5017304,1.737905E-4,0.0032166166,-7.712087E-4
1705916722880,-4.6406794,-4.2395415,-7.483502,1.737905E-4,0.0032166166,-7.712087E-4
1705916722888,-4.6406794,-4.2395415,-7.483502,7.028361E-4,0.0032138086,-9.169774E-4
1705916723110,-4.646459,-4.2519846,-7.4918222,7.028361E-4,0.0032138086,-9.169774E-4
1705916723118,-4.646459,-4.2519846,-7.4918222,-8.5500884E-5,0.0033622372,-0.0012324117
1705916723440,-4.6525064,-4.269208,-7.5046163,-8.5500884E-5,0.0033622372,-0.0012324117
1705916723444,-4.6525064,-4.269208,-7.5046163,-1.1905242E-4,0.0031119853,-0.0018320227
1705916723808,-4.6571074,-4.2533393,-7.512772,-1.1905242E-4,0.0031119853,-0.0018320227
1705916723815,-4.6571074,-4.2533393,-7.512772,-1.6375224E-4,0.00280881,-2.8546056E-4
1705916724028,-4.654684,-4.2458315,-7.500468,-1.6375224E-4,0.00280881,-2.8546056E-4
1705916724033,-4.654684,-4.2458315,-7.500468,5.839593E-4,0.003213666,-8.501892E-4
1705916724332,-4.6465096,-4.2423496,-7.48591,5.839593E-4,0.003213666,-8.501892E-4
1705916724335,-4.6465096,-4.2423496,-7.48591,-2.0657049E-4,0.0017577395,-9.032768E-4
1705916724763,-4.6466594,-4.2467732,-7.5061245,-2.0657049E-4,0.0017577395,-9.032768E-4
1705916724766,-4.6466594,-4.2467732,-7.5061245,-4.574869E-4,0.0020084663,7.744253E-6
1705916724941,-4.648241,-4.2593894,-7.5089664,-4.574869E-4,0.0020084663,7.744253E-6
1705916724949,-4.648241,-4.2593894,-7.5089664,-6.8411866E-4,0.002032519,-9.3494495E-4
1705916725258,-4.6509924,-4.262449,-7.5019073,-6.8411866E-4,0.002032519,-9.3494495E-4
1705916725265,-4.6509924,-4.262449,-7.5019073,3.06489E-4,0.0027016515,-0.0016235325
1705916725511,-4.648185,-4.253939,-7.49091,3.06489E-4,0.0027016515,-0.0016235325
1705916725518,-4.648185,-4.253939,-7.49091,8.818292E-5,0.002826551,-0.0011940945
1705916725872,-4.6421103,-4.248304,-7.4840736,8.818292E-5,0.002826551,-0.0011940945
1705916725883,-4.6421103,-4.248304,-7.4840736,6.584898E-4,0.0020306879,-0.0015377955
1705916726098,-4.649475,-4.264527,-7.4972177,6.584898E-4,0.0020306879,-0.0015377955
1705916726105,-4.649475,-4.264527,-7.4972177,2.5779192E-4,0.001758297,-0.0011641682
1705916726426,-4.6523933,-4.2594457,-7.5043945,2.5779192E-4,0.001758297,-0.0011641682
1705916726432,-4.6523933,-4.2594457,-7.5043945,-5.2924384E-4,0.0028153686,-3.8793051E-4
1705916726794,-4.6557813,-4.2439575,-7.4964347,-5.2924384E-4,0.0028153686,-3.8793051E-4
1705916726799,-4.6557813,-4.2439575,-7.4964347,-1.2803663E-4,0.0029513417,-7.6094293E-4
1705916727023,-4.6383896,-4.248452,-7.4794455,-1.2803663E-4,0.0029513417,-7.6094293E-4
1705916727030,-4.6383896,-4.248452,-7.4794455,6.8755035E-6,0.002009024,-2.5314724E-4
1705916727336,-4.630653,-4.2602596,-7.4796567,6.8755035E-6,0.002009024,-2.5314724E-4
1705916727347,-4.630653,-4.2602596,-7.4796567,-4.4702398E-4,0.0022969,-0.0010604304
1705916727743,-4.652199,-4.2791734,-7.4961157,-4.4702398E-4,0.0022969,-0.0010604304
1705916727751,-4.652199,-4.2791734,-7.4961157,-1.9389398E-4,0.0016188202,-6.1133195E-4
1705916727921,-4.648159,-4.261393,-7.5068307,-1.9389398E-4,0.0016188202,-6.1133195E-4
1705916727930,-4.648159,-4.261393,-7.5068307,-4.790476E-4,0.0021786976,-0.0016570394
1705916728184,-4.63896,-4.252103,-7.490437,-4.790476E-4,0.0021786976,-0.0016570394
1705916728189,-4.63896,-4.252103,-7.490437,-2.9367718E-4,0.0029476995,-5.164179E-4
1705916728492,-4.654915,-4.2518167,-7.4949102,-2.9367718E-4,0.0029476995,-5.164179E-4
1705916728499,-4.654915,-4.2518167,-7.4949102,4.453263E-4,0.0024195786,-0.00109864
1705916728850,-4.6462784,-4.268555,-7.49353,4.453263E-4,0.0024195786,-0.00109864
1705916728857,-4.6462784,-4.268555,-7.49353,3.871583E-4,0.0017515658,-9.339226E-4
1705916729086,-4.656437,-4.268958,-7.513605,3.871583E-4,0.0017515658,-9.339226E-4
1705916729093,-4.656437,-4.268958,-7.513605,-9.846713E-4,0.002971195,-0.0011982155
1705916729369,-4.6630445,-4.251394,-7.509379,-9.846713E-4,0.002971195,-0.0011982155
1705916729376,-4.6630445,-4.251394,-7.509379,-1.9577585E-4,0.0026906077,-8.820696E-4
1705916729783,-4.6445837,-4.2461762,-7.4904656,-1.9577585E-4,0.0026906077,-8.820696E-4
1705916729793,-4.6445837,-4.2461762,-7.4904656,6.288862E-4,0.0024163558,-0.0010503054
1705916730005,-4.651419,-4.244003,-7.4966464,6.288862E-4,0.0024163558,-0.0010503054
1705916730014,-4.651419,-4.244003,-7.4966464,-7.2385196E-4,0.002957624,-7.3401065E-4
1705916730310,-4.648046,-4.2516303,-7.5066085,-7.2385196E-4,0.002957624,-7.3401065E-4
1705916730316,-4.648046,-4.2516303,-7.5066085,-4.276276E-4,0.0025582814,-7.556693E-4
1705916730747,-4.655506,-4.262123,-7.5139284,-4.276276E-4,0.0025582814,-7.556693E-4
1705916730753,-4.655506,-4.262123,-7.5139284,-1.8467664E-4,0.0024153788,-5.9322355E-4
1705916730932,-4.648128,-4.249058,-7.490799,-1.8467664E-4,0.0024153788,-5.9322355E-4
1705916730937,-4.648128,-4.249058,-7.490799,-1.19993405E-4,0.0024120132,-4.7810073E-4
1705916731160,-4.6360583,-4.2446213,-7.4772816,-1.19993405E-4,0.0024120132,-4.7810073E-4
1705916731165,-4.6360583,-4.2446213,-7.4772816,5.324619E-4,0.002941694,-6.727523E-4
1705916731490,-4.6405187,-4.2627673,-7.4932346,5.324619E-4,0.002941694,-6.727523E-4
1705916731499,-4.6405187,-4.2627673,-7.4932346,-4.292049E-4,0.0024219719,-7.587681E-4
1705916731849,-4.65188,-4.261245,-7.5114584,-4.292049E-4,0.0024219719,-7.587681E-4
1705916731857,-4.65188,-4.261245,-7.5114584,-2.256619E-4,0.0024361003,-0.0014838645
1705916732069,-4.6594987,-4.253215,-7.517028,-2.256619E-4,0.0024361003,-0.0014838645
1705916732085,-4.6594987,-4.253215,-7.517028,-0.0011183392,0.0032219517,-3.4818205E-4
1705916732357,-4.649343,-4.243975,-7.498933,-0.0011183392,0.0032219517,-3.4818205E-4
1705916732367,-4.649343,-4.243975,-7.498933,-2.416212E-4,0.003087513,-6.9314305E-4
1705916732770,-4.6610723,-4.223828,-7.519766,-2.416212E-4,0.003087513,-6.9314305E-4
1705916732778,-4.6610723,-4.223828,-7.519766,-1.3816639E-4,0.0034907786,-0.0010474987
1705916732985,-4.65523,-4.251664,-7.501452,-1.3816639E-4,0.0034907786,-0.0010474987
1705916732990,-4.65523,-4.251664,-7.501452,1.8326139E-4,0.0029412748,-4.7656192E-4
1705916733306,-4.673158,-4.247892,-7.5293665,1.8326139E-4,0.0029412748,-4.7656192E-4
1705916733311,-4.673158,-4.247892,-7.5293665,-6.0680776E-4,0.0040338133,-0.0010714397
1705916733599,-4.6415124,-4.256809,-7.4969845,-6.0680776E-4,0.0040338133,-0.0010714397
1705916733606,-4.6415124,-4.256809,-7.4969845,6.9820276E-4,0.0028133993,-9.2608004E-4
1705916733911,-4.646553,-4.250958,-7.4939814,6.9820276E-4,0.0028133993,-9.2608004E-4
1705916733920,-4.646553,-4.250958,-7.4939814,1.2786698E-4,0.0018971865,-0.0013951256
1705916734153,-4.643652,-4.243475,-7.480826,1.2786698E-4,0.0018971865,-0.0013951256
1705916734160,-4.643652,-4.243475,-7.480826,4.4424116E-5,0.003223348,-0.0010014544
1705916734474,-4.661237,-4.2514424,-7.508156,4.4424116E-5,0.003223348,-0.0010014544
1705916734480,-4.661237,-4.2514424,-7.508156,-1.0087952E-4,0.0020332194,-0.0012626246
1705916734837,-4.659752,-4.2611523,-7.511514,-1.0087952E-4,0.0020332194,-0.0012626246
1705916734845,-4.659752,-4.2611523,-7.511514,3.2101438E-5,0.0021584297,-0.0010256635
1705916735049,-4.6450357,-4.253605,-7.5072365,3.2101438E-5,0.0021584297,-0.0010256635
1705916735058,-4.6450357,-4.253605,-7.5072365,4.5800288E-4,0.0022806593,-8.0669526E-4
1705916735342,-4.651348,-4.246982,-7.4945326,4.5800288E-4,0.0022806593,-8.0669526E-4
1705916735346,-4.651348,-4.246982,-7.4945326,2.972224E-4,0.0019008332,-0.0016417378
1705916735788,-4.6437016,-4.266031,-7.476975,2.972224E-4,0.0019008332,-0.0016417378
1705916735796,-4.6437016,-4.266031,-7.476975,8.8629563E-4,0.0033425223,-8.598401E-4
1705916735943,-4.6530895,-4.269132,-7.507648,8.8629563E-4,0.0033425223,-8.598401E-4
1705916735950,-4.6530895,-4.269132,-7.507648,-2.6531916E-4,0.003070157,8.237506E-5
1705916736293,-4.652416,-4.2613983,-7.504439,-2.6531916E-4,0.003070157,8.237506E-5
1705916736301,-4.652416,-4.2613983,-7.504439,-3.318621E-4,0.0022970382,-0.0011251315
1705916736539,-4.6414466,-4.2462482,-7.4888687,-3.318621E-4,0.0022970382,-0.0011251315
1705916736545,-4.6414466,-4.2462482,-7.4888687,5.1808427E-5,0.0029481144,-7.105212E-4
1705916736895,-4.64828,-4.2482095,-7.4850864,5.1808427E-5,0.0029481144,-7.105212E-4
1705916736902,-4.64828,-4.2482095,-7.4850864,-2.798554E-4,0.002432592,-0.0013019535
1705916737124,-4.6437516,-4.2569647,-7.489008,-2.798554E-4,0.002432592,-0.0013019535
1705916737131,-4.6437516,-4.2569647,-7.489008,-9.6527487E-4,0.0032325762,-8.9345453E-4
1705916737445,-4.6410213,-4.26113,-7.522038,-9.6527487E-4,0.0032325762,-8.9345453E-4
1705916737451,-4.6410213,-4.26113,-7.522038,5.087864E-4,0.0032239056,-0.0012623458
1705916737817,-4.652632,-4.2436223,-7.5127616,5.087864E-4,0.0032239056,-0.0012623458
1705916737821,-4.652632,-4.2436223,-7.5127616,1.4110203E-4,0.0016261089,-0.0011024692
1705916738022,-4.651478,-4.243612,-7.4708304,1.4110203E-4,0.0016261089,-0.0011024692
1705916738035,-4.651478,-4.243612,-7.4708304,-3.9929675E-4,8.282072E-4,-9.786192E-4
1705916738349,-4.646181,-4.246798,-7.5052733,-3.9929675E-4,8.282072E-4,-9.786192E-4
1705916738356,-4.646181,-4.246798,-7.5052733,-4.8872724E-5,0.0021687732,-0.0014394466
1705916738773,-4.652451,-4.2596235,-7.496523,-4.8872724E-5,0.0021687732,-0.0014394466
1705916738779,-4.652451,-4.2596235,-7.496523,5.0109706E-4,0.0025593967,-0.0012774523
1705916738945,-4.655136,-4.25326,-7.517238,5.0109706E-4,0.0025593967,-0.0012774523
1705916738951,-4.655136,-4.25326,-7.517238,-4.6245195E-4,9.636226E-4,-0.0010907402
1705916739266,-4.659177,-4.238851,-7.5044622,-4.6245195E-4,9.636226E-4,-0.0010907402
1705916739272,-4.659177,-4.238851,-7.5044622,-3.6196318E-5,0.0020298539,-0.0011475018
1705916739684,-4.6396966,-4.247045,-7.4977193,-3.6196318E-5,0.0020298539,-0.0011475018
1705916739691,-4.6396966,-4.247045,-7.4977193,4.0717027E-4,0.0034809925,-8.9460704E-4
1705916739862,-4.6328707,-4.254897,-7.499542,4.0717027E-4,0.0034809925,-8.9460704E-4
1705916739865,-4.6328707,-4.254897,-7.499542,8.9405646E-4,0.0021630188,-0.0016662829
1705916740135,-4.6621313,-4.2594824,-7.4978027,8.9405646E-4,0.0021630188,-0.0016662829
1705916740142,-4.6621313,-4.2594824,-7.4978027,2.1161477E-4,0.0015107677,-0.0020646236
1705916740427,-4.6565447,-4.2595015,-7.4998217,2.1161477E-4,0.0015107677,-0.0020646236
1705916740433,-4.6565447,-4.2595015,-7.4998217,-2.798554E-4,0.002432592,-0.0013019535
1705916740804,-4.6340265,-4.253201,-7.4876394,-2.798554E-4,0.002432592,-0.0013019535
1705916740810,-4.6340265,-4.253201,-7.4876394,2.338404E-4,0.0028128417,-6.6518853E-4
1705916741026,-4.634378,-4.2471404,-7.4962277,2.338404E-4,0.0028128417,-6.6518853E-4
1705916741034,-4.634378,-4.2471404,-7.4962277,-7.7224406E-4,0.0029540116,-5.504731E-4
1705916741341,-4.648787,-4.264653,-7.492006,-7.7224406E-4,0.0029540116,-5.504731E-4
1705916741349,-4.648787,-4.264653,-7.492006,9.367935E-5,0.0018867047,-9.166413E-4
1705916741743,-4.667494,-4.267995,-7.5073647,9.367935E-5,0.0018867047,-9.166413E-4
1705916741749,-4.667494,-4.267995,-7.5073647,-3.047764E-4,0.0032229286,-8.0526393E-4
1705916741922,-4.6571317,-4.2505884,-7.5048347,-3.047764E-4,0.0032229286,-8.0526393E-4
1705916741929,-4.6571317,-4.2505884,-7.5048347,-6.4746174E-4,0.0025511307,-3.292333E-4
1705916742202,-4.6451764,-4.2512107,-7.4835567,-6.4746174E-4,0.0025511307,-3.292333E-4
1705916742208,-4.6451764,-4.2512107,-7.4835567,-9.415555E-6,0.0020160018,-5.518076E-4
1705916742647,-4.642742,-4.243296,-7.489176,-9.415555E-6,0.0020160018,-5.518076E-4
1705916742654,-4.642742,-4.243296,-7.489176,-8.294936E-4,0.0026864032,-3.7456595E-4
1705916742855,-4.657046,-4.2614293,-7.500717,-8.294936E-4,0.0026864032,-3.7456595E-4
1705916742861,-4.657046,-4.2614293,-7.500717,3.6964414E-4,0.0025662363,-0.0015114116
1705916743087,-4.652416,-4.2613983,-7.504439,3.6964414E-4,0.0025662363,-0.0015114116
1705916743094,-4.652416,-4.2613983,-7.504439,1.941275E-4,0.0020301305,-0.001276904
1705916743420,-4.653272,-4.247859,-7.4979587,1.941275E-4,0.0020301305,-0.001276904
1705916743426,-4.653272,-4.247859,-7.4979587,-1.5048904E-4,0.0024258608,-0.0010717078
1705916743783,-4.6504855,-4.2460046,-7.494989,-1.5048904E-4,0.0024258608,-0.0010717078
1705916743787,-4.6504855,-4.2460046,-7.494989,-3.77736E-5,0.0018935445,-0.0011506006
1705916744009,-4.6448245,-4.25784,-7.4929123,-3.77736E-5,0.0018935445,-0.0011506006
1705916744018,-4.6448245,-4.25784,-7.4929123,-3.2106746E-4,0.0032299065,-0.0011039244
1705916744326,-4.651923,-4.2692833,-7.5015845,-3.2106746E-4,0.0032299065,-0.0011039244
1705916744330,-4.651923,-4.2692833,-7.5015845,-5.098474E-4,0.00307675,-8.316946E-5
1705916744732,-4.649196,-4.263474,-7.5007052,-5.098474E-4,0.00307675,-8.316946E-5
1705916744737,-4.649196,-4.263474,-7.5007052,-1.6064693E-4,0.0030771694,-2.7935987E-4
1705916744910,-4.6539025,-4.2469854,-7.493098,-1.6064693E-4,0.0030771694,-2.7935987E-4
1705916744914,-4.6539025,-4.2469854,-7.493098,-4.1255396E-4,0.0029475568,-4.4962968E-4
1705916745187,-4.650382,-4.241922,-7.5027704,-4.1255396E-4,0.0029475568,-4.4962968E-4
1705916745194,-4.650382,-4.241922,-7.5027704,5.7469273E-4,0.0024128475,-8.683944E-4
1705916745480,-4.64213,-4.259662,-7.500083,5.7469273E-4,0.0024128475,-8.683944E-4
1705916745488,-4.64213,-4.259662,-7.500083,-2.3357799E-4,0.0025481845,-4.1030085E-4
1705916745837,-4.648847,-4.2612667,-7.5120425,-2.3357799E-4,0.0025481845,-4.1030085E-4
1705916745843,-4.648847,-4.2612667,-7.5120425,3.057343E-5,0.0020263798,-0.0010286653
1705916746099,-4.658846,-4.251567,-7.5039005,3.057343E-5,0.0020263798,-0.0010286653
1705916746107,-4.658846,-4.251567,-7.5039005,1.6762916E-4,0.0026841573,-7.833133E-4
1705916746397,-4.65556,-4.243082,-7.492052,1.6762916E-4,0.0026841573,-7.833133E-4
1705916746403,-4.65556,-4.243082,-7.492052,-2.127318E-4,0.0012252805,-9.153813E-4
1705916746764,-4.643847,-4.2518034,-7.5011287,-2.127318E-4,0.0012252805,-9.153813E-4
1705916746770,-4.643847,-4.2518034,-7.5011287,1.9682961E-4,0.0034980674,-0.0015386358
1705916746994,-4.6671233,-4.259132,-7.5106745,1.9682961E-4,0.0034980674,-0.0015386358
1705916747000,-4.6671233,-4.259132,-7.5106745,-9.293662E-5,0.0016258279,-9.709798E-4
1705916747309,-4.652018,-4.2641225,-7.5137057,-9.293662E-5,0.0016258279,-9.709798E-4
1705916747315,-4.652018,-4.2641225,-7.5137057,-2.5638426E-4,0.003226541,-9.888015E-4
1705916747722,-4.6428456,-4.247948,-7.499338,-2.5638426E-4,0.003226541,-9.888015E-4
1705916747726,-4.6428456,-4.247948,-7.499338,2.2579721E-4,0.00335217,-9.4803073E-4
1705916747901,-4.6432652,-4.2471766,-7.490115,2.2579721E-4,0.00335217,-9.4803073E-4
1705916747907,-4.6432652,-4.2471766,-7.490115,5.2912347E-4,0.002037419,-0.0017680412
1705916748159,-4.643755,-4.248128,-7.4909883,5.2912347E-4,0.002037419,-0.0017680412
1705916748166,-4.643755,-4.248128,-7.4909883,5.309339E-4,0.0028096442,-6.757543E-4
1705916748478,-4.64263,-4.26159,-7.500978,5.309339E-4,0.0028096442,-6.757543E-4
1705916748484,-4.64263,-4.26159,-7.500978,3.6682136E-4,0.002938052,-4.2822733E-4
1705916748835,-4.6547165,-4.2534637,-7.508517,3.6682136E-4,0.002938052,-4.2822733E-4
1705916748839,-4.6547165,-4.2534637,-7.508517,-0.0011392636,0.0028285203,-6.5594504E-4
1705916749057,-4.6464705,-4.252961,-7.4918447,-0.0011392636,0.0028285203,-6.5594504E-4
1705916749064,-4.6464705,-4.252961,-7.4918447,3.169786E-4,0.0026947777,-0.0013264986
1705916749343,-4.637921,-4.254156,-7.4865985,3.169786E-4,0.0026947777,-0.0013264986
1705916749349,-4.637921,-4.254156,-7.4865985,1.878947E-4,0.003341684,-4.6745932E-4
1705916749767,-4.640892,-4.262793,-7.491905,1.878947E-4,0.003341684,-4.6745932E-4
1705916749773,-4.640892,-4.262793,-7.491905,4.437983E-4,0.0022875287,-0.001101642
1705916749974,-4.6602154,-4.2689877,-7.510363,4.437983E-4,0.0022875287,-0.001101642
1705916749983,-4.6602154,-4.2689877,-7.510363,-9.471818E-5,0.0025656787,-0.0012505201
1705916750295,-4.657272,-4.2487636,-7.4990993,-9.471818E-5,0.0025656787,-0.0012505201
1705916750302,-4.657272,-4.2487636,-7.4990993,-3.2326038E-4,0.0016255514,-8.415776E-4
1705916750546,-4.640522,-4.25393,-7.495215,-3.2326038E-4,0.0016255514,-8.415776E-4
1705916750552,-4.640522,-4.25393,-7.495215,2.522954E-4,0.0026981432,-0.0014416215
1705916750904,-4.640865,-4.2421904,-7.4958005,2.522954E-4,0.0026981432,-0.0014416215
1705916750911,-4.640865,-4.2421904,-7.4958005,-2.5638426E-4,0.003226541,-9.888015E-4
1705916751144,-4.6576886,-4.257397,-7.5058403,-2.5638426E-4,0.003226541,-9.888015E-4
1705916751151,-4.6576886,-4.257397,-7.5058403,-4.3622934E-4,0.0032297682,-0.0010392233
1705916751464,-4.654841,-4.2642026,-7.508761,-4.3622934E-4,0.0032297682,-0.0010392233
1705916751471,-4.654841,-4.2642026,-7.508761,-3.8081277E-4,0.0024255842,-9.423056E-4
1705916751825,-4.6464143,-4.24808,-7.4917336,-3.8081277E-4,0.0024255842,-9.423056E-4
1705916751832,-4.6464143,-4.24808,-7.4917336,4.1113875E-4,0.0024090968,-6.201558E-4
1705916752054,-4.643191,-4.258993,-7.4860206,4.1113875E-4,0.0024090968,-6.201558E-4
1705916752060,-4.643191,-4.258993,-7.4860206,7.2450435E-5,0.0027013705,-0.0014920431
1705916752353,-4.6447,-4.247102,-7.492668,7.2450435E-5,0.0027013705,-0.0014920431
1705916752359,-4.6447,-4.247102,-7.492668,-7.56761E-5,0.0018830581,-6.700292E-4
1705916752780,-4.6424623,-4.275002,-7.5126696,-7.56761E-5,0.0018830581,-6.700292E-4
1705916752791,-4.6424623,-4.275002,-7.5126696,-7.8853517E-4,0.0029609895,-8.4913353E-4
1705916752946,-4.647404,-4.251528,-7.5114474,-7.8853517E-4,0.0029609895,-8.4913353E-4
1705916752953,-4.647404,-4.251528,-7.5114474,-3.77736E-5,0.0018935445,-0.0011506006
1705916753275,-4.64891,-4.247336,-7.4802246,-3.77736E-5,0.0018935445,-0.0011506006
1705916753280,-4.64891,-4.247336,-7.4802246,-6.335345E-5,0.002947976,-6.458201E-4
1705916753522,-4.651104,-4.2441554,-7.4901047,-6.335345E-5,0.002947976,-6.458201E-4
1705916753526,-4.651104,-4.2441554,-7.4901047,5.0568115E-4,0.0029555461,-0.0012684466
1705916753879,-4.6406593,-4.2615113,-7.505444,5.0568115E-4,0.0029555461,-0.0012684466
1705916753885,-4.6406593,-4.2615113,-7.505444,-5.9204514E-4,0.0017469467,-2.3231571E-4
1705916754141,-4.651889,-4.266924,-7.519462,-5.9204514E-4,0.0017469467,-2.3231571E-4
1705916754150,-4.651889,-4.266924,-7.519462,-5.889398E-4,0.002015306,-2.2621501E-4
1705916754437,-4.654728,-4.25444,-7.5085387,-5.889398E-4,0.002015306,-2.2621501E-4
1705916754440,-4.654728,-4.25444,-7.5085387,-3.2326038E-4,0.0016255514,-8.415776E-4
1705916754809,-4.6329327,-4.246238,-7.4936523,-3.2326038E-4,0.0016255514,-8.415776E-4
1705916754814,-4.6329327,-4.246238,-7.4936523,6.304635E-4,0.0025526653,-0.0010472067
1705916755028,-4.6354623,-4.248423,-7.48221,6.304635E-4,0.0025526653,-0.0010472067
1705916755032,-4.6354623,-4.248423,-7.48221,-3.0940972E-4,0.0028225193,-8.1436656E-4
1705916755347,-4.6589737,-4.2534685,-7.506125,-3.0940972E-4,0.0028225193,-8.1436656E-4
1705916755354,-4.6589737,-4.2534685,-7.506125,-0.0010333192,0.0020320998,-7.387545E-4
1705916755761,-4.6514745,-4.2535872,-7.5047398,-0.0010333192,0.0020320998,-7.387545E-4
1705916755764,-4.6514745,-4.2535872,-7.5047398,7.533146E-4,0.0032173123,-0.0010968014
1705916755938,-4.659419,-4.245812,-7.498927,7.533146E-4,0.0032173123,-0.0010968014
1705916755944,-4.659419,-4.245812,-7.498927,9.1584993E-4,0.002952595,-0.001347427
1705916756259,-4.65134,-4.237169,-7.496491,9.1584993E-4,0.002952595,-0.001347427
1705916756265,-4.65134,-4.237169,-7.496491,1.6146782E-4,0.0021516983,-7.954178E-4
1705916756509,-4.6610026,-4.2542944,-7.511732,1.6146782E-4,0.0021516983,-7.954178E-4
1705916756515,-4.6610026,-4.2542944,-7.511732,6.550306E-4,0.002966166,-0.001811632
1705916756867,-4.6469665,-4.268997,-7.516687,6.550306E-4,0.002966166,-0.001811632
1705916756872,-4.6469665,-4.268997,-7.516687,8.0139784E-5,0.0033658794,-0.0014769367
1705916757093,-4.6596146,-4.2541404,-7.5192304,8.0139784E-5,0.0033658794,-0.0014769367
1705916757100,-4.6596146,-4.2541404,-7.5192304,-5.8125047E-4,0.0026798148,-2.1110853E-4
1705916757426,-4.6555395,-4.2369957,-7.501971,-5.8125047E-4,0.0026798148,-2.1110853E-4
1705916757432,-4.6555395,-4.2369957,-7.501971,-3.1404302E-4,0.0024221102,-8.234692E-4
1705916757792,-4.6475997,-4.226528,-7.4937987,-3.1404302E-4,0.0024221102,-8.234692E-4
1705916757795,-4.6475997,-4.226528,-7.4937987,-3.780613E-4,0.0038977808,-0.0012039406
1705916758021,-4.648362,-4.246775,-7.5051675,-3.780613E-4,0.0038977808,-0.0012039406
1705916758027,-4.648362,-4.246775,-7.5051675,-1.7177328E-4,0.0014998666,-0.0013899489
1705916758327,-4.655046,-4.24545,-7.5170608,-1.7177328E-4,0.0014998666,-0.0013899489
1705916758333,-4.655046,-4.24545,-7.5170608,4.6619098E-6,0.0024363769,-0.0016132668
1705916758741,-4.637002,-4.2482977,-7.4869437,4.6619098E-6,0.0024363769,-0.0016132668
1705916758746,-4.637002,-4.2482977,-7.4869437,1.2046007E-4,0.0018728527,-3.2094712E-4
1705916758920,-4.641484,-4.239772,-7.4729724,1.2046007E-4,0.0018728527,-3.2094712E-4
1705916758923,-4.641484,-4.239772,-7.4729724,4.0411425E-4,0.0032168932,-9.0061093E-4
1705916759195,-4.6285577,-4.2494416,-7.4838786,4.0411425E-4,0.0032168932,-9.0061093E-4
1705916759200,-4.6285577,-4.2494416,-7.4838786,1.0882481E-4,0.0025798073,-0.0019756164
1705916759489,-4.636433,-4.273272,-7.5059223,1.0882481E-4,0.0025798073,-0.0019756164
1705916759495,-4.636433,-4.273272,-7.5059223,0.0010713547,0.0017592739,-0.0016212502
1705916759847,-4.6543055,-4.259346,-7.507798,0.0010713547,0.0017592739,-0.0016212502
1705916759853,-4.6543055,-4.259346,-7.507798,5.654753E-4,0.0016162887,-8.865028E-4
1705916760091,-4.652198,-4.251117,-7.4840913,5.654753E-4,0.0016162887,-8.865028E-4
1705916760097,-4.652198,-4.251117,-7.4840913,7.15993E-4,0.0012263956,-0.0014371644
1705916760406,-4.64675,-4.254014,-7.488357,7.15993E-4,0.0012263956,-0.0014371644
1705916760411,-4.64675,-4.254014,-7.488357,-1.4402758E-5,0.00281943,-8.2864595E-4
1705916760773,-4.641168,-4.272683,-7.486437,-1.4402758E-5,0.00281943,-8.2864595E-4
1705916760779,-4.641168,-4.272683,-7.486437,6.177869E-4,0.0026915844,-0.0013391515
1705916761001,-4.6512218,-4.273137,-7.504332,6.177869E-4,0.0026915844,-0.0013391515
1705916761005,-4.6512218,-4.273137,-7.504332,4.5494686E-4,0.0020165595,-8.126991E-4
1705916761315,-4.6436543,-4.267398,-7.502814,4.5494686E-4,0.0020165595,-8.126991E-4
1705916761320,-4.6436543,-4.267398,-7.502814,-2.1670025E-4,0.0022971765,-0.0011898326
1705916761721,-4.652802,-4.258266,-7.5130944,-2.1670025E-4,0.0022971765,-0.0011898326
1705916761727,-4.652802,-4.258266,-7.5130944,-2.1053891E-4,0.0028296355,-0.0011777281
1705916761899,-4.6440635,-4.2650805,-7.475624,-2.1053891E-4,0.0028296355,-0.0011777281
1705916761905,-4.6440635,-4.2650805,-7.475624,3.7018018E-4,0.0021345105,-1.4558824E-4
1705916762180,-4.663306,-4.269144,-7.5019083,3.7018018E-4,0.0021345105,-1.4558824E-4
1705916762183,-4.663306,-4.269144,-7.5019083,2.7468137E-5,0.0017580205,-0.0010347661
1705916762477,-4.6410437,-4.262513,-7.504138,2.7468137E-5,0.0017580205,-0.0010347661
1705916762485,-4.6410437,-4.262513,-7.504138,4.940233E-4,0.003362933,-0.0015580043
1705916762834,-4.636186,-4.2470913,-7.4974513,4.940233E-4,0.003362933,-0.0015580043
1705916762844,-4.636186,-4.2470913,-7.4974513,6.433443E-4,0.0013375856,-4.7882035E-4
1705916763066,-4.669079,-4.2384467,-7.4742365,6.433443E-4,0.0013375856,-4.7882035E-4
1705916763072,-4.669079,-4.2384467,-7.4742365,-1.8157133E-4,0.002683738,-5.8712286E-4
1705916763351,-4.610407,-4.2581806,-7.4954524,-1.8157133E-4,0.002683738,-5.8712286E-4
1705916763357,-4.610407,-4.2581806,-7.4954524,-9.24926E-4,0.003775517,-0.0013598343
1705916763754,-4.6166797,-4.2627387,-7.506628,-9.24926E-4,0.003775517,-0.0013598343
1705916763760,-4.6166797,-4.2627387,-7.506628,1.4110203E-4,0.0016261089,-0.0011024692
1705916763982,-4.678948,-4.2643075,-7.491857,1.4110203E-4,0.0016261089,-0.0011024692
1705916763987,-4.678948,-4.2643075,-7.491857,-3.1404302E-4,0.0024221102,-8.234692E-4
1705916764306,-4.672271,-4.247958,-7.4839253,-3.1404302E-4,0.0024221102,-8.234692E-4
1705916764310,-4.672271,-4.247958,-7.4839253,1.4482293E-4,0.0033625138,-0.0013618139
1705916764714,-4.6213374,-4.251182,-7.49695,1.4482293E-4,0.0033625138,-0.0013618139
1705916764720,-4.6213374,-4.251182,-7.49695,1.4792825E-4,0.0036308733,-0.0013557132
1705916764889,-4.6168976,-4.27245,-7.5090303,1.4792825E-4,0.0036308733,-0.0013557132
1705916764896,-4.6168976,-4.27245,-7.5090303,6.351549E-5,0.002544987,-4.2086662E-4
1705916765141,-4.6552134,-4.2642283,-7.5074306,6.351549E-5,0.002544987,-4.2086662E-4
1705916765144,-4.6552134,-4.2642283,-7.5074306,4.5184154E-4,0.0017482002,-8.1879983E-4
1705916765470,-4.6546597,-4.2480135,-7.4904604,4.5184154E-4,0.0017482002,-8.1879983E-4
1705916765473,-4.6546597,-4.2480135,-7.4904604,-3.645217E-4,0.002418606,-6.436453E-4
1705916765828,-4.642692,-4.252931,-7.495088,-3.645217E-4,0.002418606,-6.436453E-4
1705916765840,-4.642692,-4.252931,-7.495088,-9.3190174E-5,0.0026977283,-0.0012475182
1705916766068,-4.642886,-4.2332034,-7.5033655,-9.3190174E-5,0.0026977283,-0.0012475182
1705916766075,-4.642886,-4.2332034,-7.5033655,8.103086E-4,0.0025494378,-9.96785E-4
1705916766363,-4.650445,-4.261319,-7.5089054,8.103086E-4,0.0025494378,-9.96785E-4
1705916766368,-4.650445,-4.261319,-7.5089054,1.3125471E-4,0.002805721,-2.9973994E-4
1705916766742,-4.6646523,-4.257126,-7.5142465,1.3125471E-4,0.002805721,-2.9973994E-4
1705916766746,-4.6646523,-4.257126,-7.5142465,8.818292E-5,0.002826551,-0.0011940945
1705916766962,-4.645808,-4.2467723,-7.506603,8.818292E-5,0.002826551,-0.0011940945
1705916766968,-4.645808,-4.2467723,-7.506603,1.309723E-4,0.002165546,-0.0013890249
1705916767281,-4.6278563,-4.2532954,-7.486626,1.309723E-4,0.002165546,-0.0013890249
1705916767289,-4.6278563,-4.2532954,-7.486626,-8.609076E-4,0.0022998461,-9.793628E-4
1705916767695,-4.6282406,-4.2542973,-7.4853187,-8.609076E-4,0.0022998461,-9.793628E-4
1705916767698,-4.6282406,-4.2542973,-7.4853187,-3.0940972E-4,0.0028225193,-8.1436656E-4
1705916767882,-4.65133,-4.26368,-7.4905486,-3.0940972E-4,0.0028225193,-8.1436656E-4
1705916767887,-4.65133,-4.26368,-7.4905486,-7.6144945E-4,0.0038868797,-5.2926596E-4
1705916768127,-4.6467953,-4.258488,-7.5063906,-7.6144945E-4,0.0038868797,-5.2926596E-4
1705916768134,-4.6467953,-4.258488,-7.5063906,2.6858653E-4,0.0026911653,-0.0011429611
1705916768443,-4.6490116,-4.256691,-7.4983697,2.6858653E-4,0.0026911653,-0.0011429611
1705916768449,-4.6490116,-4.256691,-7.4983697,-2.610176E-4,0.0028261316,-9.979041E-4
1705916768798,-4.6384625,-4.2413387,-7.491523,-2.610176E-4,0.0028261316,-9.979041E-4
1705916768804,-4.6384625,-4.2413387,-7.491523,2.6151276E-4,0.0034947018,-0.001423513
1705916769029,-4.6414976,-4.26467,-7.494981,2.6151276E-4,0.0034947018,-0.001423513
1705916769036,-4.6414976,-4.26467,-7.494981,1.5810423E-5,0.0021654076,-0.0013243238
1705916769346,-4.6522136,-4.2718816,-7.5160637,1.5810423E-5,0.0021654076,-0.0013243238
1705916769352,-4.6522136,-4.2718816,-7.5160637,-1.7154176E-5,0.0013472334,-5.6701095E-4
1705916769764,-4.647076,-4.254838,-7.4949207,-1.7154176E-5,0.0013472334,-5.6701095E-4
1705916769769,-4.647076,-4.254838,-7.4949207,5.321795E-4,0.0023015188,-0.0017620373
1705916769941,-4.6477695,-4.241172,-7.4941316,5.321795E-4,0.0023015188,-0.0017620373
1705916769947,-4.6477695,-4.241172,-7.4941316,-1.4275042E-4,0.0030946294,-0.0010565044
1705916770273,-4.6316237,-4.252349,-7.4833612,-1.4275042E-4,0.0030946294,-0.0010565044
1705916770280,-4.6316237,-4.252349,-7.4833612,-8.677531E-5,0.002158287,-9.5887523E-4
1705916770517,-4.648718,-4.263499,-7.499855,-8.677531E-5,0.002158287,-9.5887523E-4
1705916770524,-4.648718,-4.263499,-7.499855,2.0028878E-4,0.0025625897,-0.0012647994
1705916770873,-4.6655264,-4.2590795,-7.5138125,2.0028878E-4,0.0025625897,-0.0012647994
1705916770880,-4.6655264,-4.2590795,-7.5138125,-3.5372705E-4,0.0033514742,-6.224381E-4
1705916771100,-4.64877,-4.249161,-7.4859605,-3.5372705E-4,0.0033514742,-6.224381E-4
1705916771106,-4.64877,-4.249161,-7.4859605,5.103145E-4,0.0033559552,-0.0012593439
1705916771433,-4.6428003,-4.2440434,-7.4992495,5.103145E-4,0.0033559552,-0.0012593439
1705916771436,-4.6428003,-4.2440434,-7.4992495,2.9849465E-4,0.0010974006,-0.0013628122
1705916771800,-4.6473184,-4.2617993,-7.4893856,2.9849465E-4,0.0010974006,-0.0013628122
1705916771803,-4.6473184,-4.2617993,-7.4893856,5.1311473E-4,0.0026845722,-9.774165E-4
1705916772029,-4.662516,-4.2610536,-7.5144405,5.1311473E-4,0.0026845722,-9.774165E-4
1705916772037,-4.662516,-4.2610536,-7.5144405,4.72244E-5,0.002551965,-7.1952696E-4
1705916772344,-4.658122,-4.2534676,-7.5066032,4.72244E-5,0.002551965,-7.1952696E-4
1705916772350,-4.658122,-4.2534676,-7.5066032,-0.0010600998,0.0020459518,-0.0013344488
1705916772748,-4.653193,-4.2410254,-7.497803,-0.0010600998,0.0020459518,-0.0013344488
1705916772756,-4.653193,-4.2410254,-7.497803,-4.550672E-4,0.0028362283,-0.0013432726
1705916772925,-4.631343,-4.2554297,-7.4768863,-4.550672E-4,0.0028362283,-0.0013432726
1705916772931,-4.631343,-4.2554297,-7.4768863,4.72244E-5,0.002551965,-7.1952696E-4
1705916773182,-4.653329,-4.2527404,-7.4980693,4.72244E-5,0.002551965,-7.1952696E-4
1705916773188,-4.653329,-4.2527404,-7.4980693,-2.0564097E-5,0.002286971,-8.407505E-4
1705916773500,-4.655805,-4.273966,-7.5085044,-2.0564097E-5,0.002286971,-8.407505E-4
1705916773507,-4.655805,-4.273966,-7.5085044,1.5805798E-4,0.0030914363,-0.0010691574
1705916773856,-4.6538167,-4.2583947,-7.5069256,1.5805798E-4,0.0030914363,-0.0010691574
1705916773864,-4.6538167,-4.2583947,-7.5069256,-3.9038394E-4,0.0028328628,-0.0012281497
1705916774105,-4.629165,-4.246616,-7.4789724,-3.9038394E-4,0.0028328628,-0.0012281497
1705916774110,-4.629165,-4.246616,-7.4789724,1.1190763E-4,0.0025485994,-6.0440414E-4
1705916774416,-4.644905,-4.259971,-7.485086,1.1190763E-4,0.0025485994,-6.0440414E-4
1705916774423,-4.644905,-4.259971,-7.485086,1.4415805E-4,0.0018902085,-0.0010964653
1705916774781,-4.651493,-4.2643766,-7.502803,1.4415805E-4,0.0018902085,-0.0010964653
1705916774786,-4.651493,-4.2643766,-7.502803,1.6915717E-4,0.0028162072,-7.8031135E-4
1705916775010,-4.6542716,-4.2564173,-7.5077314,1.6915717E-4,0.0028162072,-7.8031135E-4
1705916775016,-4.6542716,-4.2564173,-7.5077314,1.309723E-4,0.002165546,-0.0013890249
1705916775320,-4.6431346,-4.254112,-7.4859095,1.309723E-4,0.002165546,-0.0013890249
1705916775325,-4.6431346,-4.254112,-7.4859095,-3.8081277E-4,0.0024255842,-9.423056E-4
1705916775730,-4.639524,-4.241238,-7.4954047,-3.8081277E-4,0.0024255842,-9.423056E-4
1705916775733,-4.639524,-4.241238,-7.4954047,-1.8773266E-4,0.002151279,-5.992274E-4
1705916775908,-4.6469646,-4.2725625,-7.4887786,-1.8773266E-4,0.002151279,-5.992274E-4
1705916775912,-4.6469646,-4.2725625,-7.4887786,5.4022257E-4,0.0017621905,-0.0014791951
1705916776174,-4.648737,-4.274288,-7.497918,5.4022257E-4,0.0017621905,-0.0014791951
1705916776179,-4.648737,-4.274288,-7.497918,5.5254524E-4,0.0028271084,-0.0014549859
1705916776479,-4.645955,-4.2594633,-7.5068913,5.5254524E-4,0.0028271084,-0.0014549859
1705916776484,-4.645955,-4.2594633,-7.5068913,-8.214198E-5,0.0025586963,-9.497726E-4
1705916776835,-4.6482654,-4.256639,-7.501028,-8.214198E-5,0.0025586963,-9.497726E-4
1705916776841,-4.6482654,-4.256639,-7.501028,-2.3884763E-4,0.0027114376,-0.0017764242
1705916777074,-4.636708,-4.2551055,-7.488429,-2.3884763E-4,0.0027114376,-0.0017764242
1705916777078,-4.636708,-4.2551055,-7.488429,4.7892722E-4,0.0026740904,-4.989323E-4
1705916777395,-4.655345,-4.2572927,-7.511637,4.7892722E-4,0.0026740904,-4.989323E-4
1705916777401,-4.655345,-4.2572927,-7.511637,3.1339005E-6,0.002304327,-0.0016162687
1705916777761,-4.6548085,-4.257139,-7.5186567,3.1339005E-6,0.002304327,-0.0016162687
1705916777766,-4.6548085,-4.257139,-7.5186567,-6.043392E-4,0.0027179965,-0.001878894
1705916777990,-4.649558,-4.2625237,-7.4993544,-6.043392E-4,0.0027179965,-0.001878894
1705916777996,-4.649558,-4.2625237,-7.4993544,-1.5817836E-4,0.0017613518,-0.0010868143
1705916778296,-4.650673,-4.2439513,-7.499305,-1.5817836E-4,0.0017613518,-0.0010868143
1705916778302,-4.650673,-4.2439513,-7.499305,-2.5332827E-4,0.0034906403,-9.827976E-4
1705916778714,-4.6482525,-4.2597966,-7.491043,-2.5332827E-4,0.0034906403,-9.827976E-4
1705916778719,-4.6482525,-4.2597966,-7.491043,4.259107E-5,0.0021515556,-7.286296E-4
1705916778892,-4.647716,-4.2596436,-7.4980636,4.259107E-5,0.0021515556,-7.286296E-4
1705916778898,-4.647716,-4.2596436,-7.4980636,-6.632435E-4,0.0024216908,-6.2727876E-4
1705916779168,-4.6554384,-4.2562656,-7.513795,-6.632435E-4,0.0024216908,-6.2727876E-4
1705916779174,-4.6554384,-4.2562656,-7.513795,-8.7028835E-5,0.0032301876,-0.0012354136
1705916779466,-4.6605535,-4.238029,-7.4969416,-8.7028835E-5,0.0032301876,-0.0012354136
1705916779470,-4.6605535,-4.238029,-7.4969416,7.433229E-5,0.0016295831,-0.0012213055
1705916779823,-4.6486793,-4.241351,-7.485783,7.433229E-5,0.0016295831,-0.0012213055
1705916779827,-4.6486793,-4.241351,-7.485783,5.0542544E-4,0.0020200633,-9.92523E-4
1705916780055,-4.642729,-4.247023,-7.4971347,5.0542544E-4,0.0020200633,-9.92523E-4
1705916780061,-4.642729,-4.247023,-7.4971347,-4.2640461E-4,0.001750589,-4.768407E-4
1705916780375,-4.6554575,-4.2670555,-7.511859,-4.2640461E-4,0.001750589,-4.768407E-4
1705916780381,-4.6554575,-4.2670555,-7.511859,-5.052634E-4,0.0034728993,-7.416369E-5
1705916780762,-4.6607666,-4.261281,-7.505346,-5.052634E-4,0.0034728993,-7.416369E-5
1705916780767,-4.6607666,-4.261281,-7.505346,-2.3515528E-4,0.002411875,-4.1339963E-4
1705916780971,-4.646825,-4.2421975,-7.492452,-2.3515528E-4,0.002411875,-4.1339963E-4
1705916780977,-4.646825,-4.2421975,-7.492452,-0.0011041348,0.003215082,-5.323533E-5
1705916781287,-4.6567087,-4.2280073,-7.5100145,-0.0011041348,0.003215082,-5.323533E-5
1705916781292,-4.6567087,-4.2280073,-7.5100145,-2.9520522E-4,0.0028156496,-5.1941985E-4
1705916781705,-4.6714597,-4.2665405,-7.5263834,-2.9520522E-4,0.0028156496,-5.1941985E-4
1705916781709,-4.6714597,-4.2665405,-7.5263834,-6.191797E-4,0.002964636,-0.0010957456
1705916781893,-4.639826,-4.2442436,-7.491962,-6.191797E-4,0.002964636,-0.0010957456
1705916781899,-4.639826,-4.2442436,-7.491962,3.8262777E-5,0.0026908887,-0.0010135589
1705916782141,-4.6416774,-4.2522335,-7.483312,3.8262777E-5,0.0026908887,-0.0010135589
1705916782151,-4.6416774,-4.2522335,-7.483312,-3.8850209E-4,0.0017610753,-9.5741206E-4
1705916782460,-4.6630263,-4.2686605,-7.5233397,-3.8850209E-4,0.0017610753,-9.5741206E-4
1705916782466,-4.6630263,-4.2686605,-7.5233397,-3.0136653E-4,0.0022831906,-5.3152436E-4
1705916782817,-4.644912,-4.242297,-7.4890475,-3.0136653E-4,0.0022831906,-5.3152436E-4
1705916782828,-4.644912,-4.242297,-7.4890475,-8.98806E-5,0.0018899274,-9.649759E-4
1705916783035,-4.634495,-4.2474966,-7.480486,-8.98806E-5,0.0018899274,-9.649759E-4
1705916783038,-4.634495,-4.2474966,-7.480486,8.056753E-4,0.0021490285,-0.0010058875
1705916783342,-4.666032,-4.248036,-7.526652,8.056753E-4,0.0021490285,-0.0010058875
1705916783348,-4.666032,-4.248036,-7.526652,2.4027773E-4,0.0025729674,-0.0017416573
1705916783759,-4.642257,-4.2615643,-7.5023074,2.4027773E-4,0.0025729674,-0.0017416573
1705916783764,-4.642257,-4.2615643,-7.5023074,-8.9417683E-4,0.002689769,-4.8968877E-4
1705916783939,-4.6232295,-4.243858,-7.474383,-8.9417683E-4,0.002689769,-4.8968877E-4
1705916783944,-4.6232295,-4.243858,-7.474383,-3.7684434E-4,0.0013536881,-6.678544E-4
1705916784273,-4.6410375,-4.2479973,-7.4981136,-3.7684434E-4,0.0013536881,-6.678544E-4
1705916784279,-4.6410375,-4.2479973,-7.4981136,-9.6295495E-5,0.0024293691,-0.0012536189
1705916784683,-4.66361,-4.2685847,-7.5263715,-9.6295495E-5,0.0024293691,-0.0012536189
1705916784688,-4.66361,-4.2685847,-7.5263715,-4.276276E-4,0.0025582814,-7.556693E-4
1705916784870,-4.6449904,-4.2491307,-7.489203,-4.276276E-4,0.0025582814,-7.556693E-4
1705916784875,-4.6449904,-4.2491307,-7.489203,-0.0012381345,0.002821404,-2.9258354E-4
1705916785106,-4.627485,-4.248566,-7.479974,-0.0012381345,0.002821404,-2.9258354E-4
1705916785112,-4.627485,-4.248566,-7.479974,3.0032772E-4,0.0021691925,-0.001635637
1705916785442,-4.669505,-4.253897,-7.5248713,3.0032772E-4,0.0021691925,-0.001635637
1705916785448,-4.669505,-4.253897,-7.5248713,1.7867736E-4,0.0025451253,-4.8556773E-4
1705916785799,-4.6423364,-4.268398,-7.502463,1.7867736E-4,0.0025451253,-4.8556773E-4
1705916785805,-4.6423364,-4.268398,-7.502463,-7.106169E-4,0.002686546,-4.4135418E-4
1705916786007,-4.621882,-4.2605796,-7.4700265,-7.106169E-4,0.002686546,-4.4135418E-4
1705916786011,-4.621882,-4.2605796,-7.4700265,-5.8871304E-4,0.0012387132,-0.0013148851
1705916786337,-4.6452346,-4.251958,-7.493631,-5.8871304E-4,0.0012387132,-0.0013148851
1705916786344,-4.6452346,-4.251958,-7.493631,0.0012007211,0.0017525428,-0.0013910045
1705916786758,-4.664089,-4.263857,-7.519241,0.0012007211,0.0017525428,-0.0013910045
1705916786762,-4.664089,-4.263857,-7.519241,-9.775975E-4,0.002167658,-9.1766356E-4
1705916786936,-4.637364,-4.2473474,-7.485593,-9.775975E-4,0.002167658,-9.1766356E-4
1705916786939,-4.637364,-4.2473474,-7.485593,7.5506454E-5,0.0029654703,-0.0014860393
1705916787271,-4.638055,-4.270005,-7.476902,7.5506454E-5,0.0029654703,-0.0014860393
1705916787276,-4.638055,-4.270005,-7.476902,2.7321986E-4,0.0030915746,-0.0011338585
1705916787506,-4.6722546,-4.26166,-7.525794,2.7321986E-4,0.0030915746,-0.0011338585
1705916787512,-4.6722546,-4.26166,-7.525794,-2.640736E-4,0.002562032,-0.001003908
1705916787863,-4.6466627,-4.269557,-7.492222,-2.640736E-4,0.002562032,-0.001003908
1705916787870,-4.6466627,-4.269557,-7.492222,-9.1662165E-5,0.0028297782,-0.0012445162
1705916788103,-4.6308436,-4.2488,-7.4680085,-9.1662165E-5,0.0028297782,-0.0012445162
1705916788106,-4.6308436,-4.2488,-7.4680085,6.177869E-4,0.0026915844,-0.0013391515
1705916788388,-4.6585584,-4.2407007,-7.5093465,6.177869E-4,0.0026915844,-0.0013391515
1705916788393,-4.6585584,-4.2407007,-7.5093465,-1.73882E-4,0.003348247,-5.720164E-4
1705916788790,-4.6483335,-4.2630653,-7.519107,-1.73882E-4,0.003348247,-5.720164E-4
1705916788795,-4.6483335,-4.2630653,-7.519107,-6.9308025E-4,0.0021714428,-0.0012289769
1705916789020,-4.648165,-4.242581,-7.4749017,-6.9308025E-4,0.0021714428,-0.0012289769
1705916789023,-4.648165,-4.242581,-7.4749017,3.0524348E-4,0.003209777,-5.372495E-4
1705916789330,-4.635637,-4.249527,-7.4765425,3.0524348E-4,0.003209777,-5.372495E-4
1705916789336,-4.635637,-4.249527,-7.4765425,-3.5864284E-4,0.0023108902,-0.0017208258
1705916789738,-4.6617246,-4.257666,-7.5349555,-3.5864284E-4,0.0023108902,-0.0017208258
1705916789744,-4.6617246,-4.257666,-7.5349555,-3.743197E-4,0.0036024777,1.5918071E-4
1705916789916,-4.652448,-4.2684603,-7.4945426,-3.743197E-4,0.0036024777,1.5918071E-4
1705916789919,-4.652448,-4.2684603,-7.4945426,-1.5940133E-4,0.0025690442,-0.0013656429
1705916790182,-4.627811,-4.24939,-7.4865375,-1.5940133E-4,0.0025690442,-0.0013656429
1705916790189,-4.627811,-4.24939,-7.4865375,-3.5864284E-4,0.0023108902,-0.0017208258
1705916790487,-4.6681623,-4.257079,-7.5145135,-3.5864284E-4,0.0023108902,-0.0017208258
1705916790491,-4.6681623,-4.257079,-7.5145135,3.4900228E-4,0.00281298,-7.298896E-4
1705916790844,-4.6561284,-4.251436,-7.5110254,3.4900228E-4,0.00281298,-7.298896E-4
1705916790850,-4.6561284,-4.251436,-7.5110254,3.5157456E-5,0.0024225295,-0.0010196596
1705916791079,-4.6490602,-4.251759,-7.500439,3.5157456E-5,0.0024225295,-0.0010196596
1705916791084,-4.6490602,-4.251759,-7.500439,-5.985603E-4,0.002418325,-5.1215594E-4
1705916791369,-4.651292,-4.2421007,-7.4944215,-5.985603E-4,0.002418325,-5.1215594E-4
1705916791373,-4.651292,-4.2421007,-7.4944215,-0.0010792138,0.0024247456,-5.499248E-4
1705916791771,-4.642618,-4.232558,-7.4889317,-0.0010792138,0.0024247456,-5.499248E-4
1705916791776,-4.642618,-4.232558,-7.4889317,1.0141797E-4,0.0025554732,-9.01438E-4
1705916791999,-4.6468987,-4.2620025,-7.4806643,1.0141797E-4,0.0025554732,-9.01438E-4
1705916792005,-4.6468987,-4.2620025,-7.4806643,-4.2457157E-4,0.002822381,-7.496655E-4
1705916792329,-4.6572595,-4.2524905,-7.5070596,-4.2457157E-4,0.002822381,-7.496655E-4
1705916792334,-4.6572595,-4.2524905,-7.5070596,-5.698752E-4,0.0016322528,-0.0010108358
1705916792719,-4.647076,-4.254838,-7.4949207,-5.698752E-4,0.0016322528,-0.0010108358
1705916792726,-4.647076,-4.254838,-7.4949207,6.5043496E-5,0.0026770367,-4.178647E-4
1705916792897,-4.660295,-4.2430625,-7.4905114,6.5043496E-5,0.0026770367,-4.178647E-4
1705916792902,-4.660295,-4.2430625,-7.4905114,-3.6019337E-4,0.0018792731,-3.5871594E-4
1705916793177,-4.6325345,-4.248963,-7.502919,-3.6019337E-4,0.0018792731,-3.5871594E-4
1705916793183,-4.6325345,-4.248963,-7.502919,-3.4784817E-4,0.0032437586,-0.0016996185
1705916793468,-4.645252,-4.268019,-7.5176215,-3.4784817E-4,0.0032437586,-0.0016996185
1705916793472,-4.645252,-4.268019,-7.5176215,-9.1662165E-5,0.0028297782,-0.0012445162
1705916793824,-4.669615,-4.272497,-7.5231123,-9.1662165E-5,0.0028297782,-0.0012445162
1705916793830,-4.669615,-4.272497,-7.5231123,-4.7744138E-4,0.004027082,-8.41194E-4
1705916794087,-4.660802,-4.259506,-7.49743,-4.7744138E-4,0.004027082,-8.41194E-4
1705916794092,-4.660802,-4.259506,-7.49743,9.4300706E-4,0.0020344728,-0.0018491088
1705916794379,-4.637617,-4.255285,-7.480079,9.4300706E-4,0.0020344728,-0.0018491088
1705916794384,-4.637617,-4.255285,-7.480079,-1.4738372E-4,0.00269422,-0.0010656071
1705916794751,-4.6376996,-4.2538505,-7.50016,-1.4738372E-4,0.00269422,-0.0010656071
1705916794757,-4.6376996,-4.2538505,-7.50016,-2.850697E-5,0.0026943628,-0.0011323954
1705916794980,-4.655833,-4.262378,-7.5025477,-2.850697E-5,0.0026943628,-0.0011323954
1705916794985,-4.655833,-4.262378,-7.5025477,-5.6681916E-4,0.0018963524,-0.001004832
1705916795307,-4.6499925,-4.2538905,-7.4921346,-5.6681916E-4,0.0018963524,-0.001004832
1705916795315,-4.6499925,-4.2538905,-7.4921346,-1.09863664E-4,0.0018725761,-1.9154492E-4
1705916795709,-4.6462803,-4.232231,-7.50143,-1.09863664E-4,0.0018725761,-1.9154492E-4
1705916795712,-4.6462803,-4.232231,-7.50143,-5.717571E-4,0.0027040401,-0.0012815734
1705916795877,-4.6474543,-4.241324,-7.4875903,-5.717571E-4,0.0027040401,-0.0012815734
1705916795884,-4.6474543,-4.241324,-7.4875903,3.554396E-4,0.0025731055,-0.0018063583
1705916796150,-4.6414075,-4.25686,-7.4948034,3.554396E-4,0.0025731055,-0.0018063583
1705916796155,-4.6414075,-4.25686,-7.4948034,1.8483867E-4,0.0030775843,-4.7346315E-4
1705916796451,-4.6673307,-4.2678676,-7.5130553,1.8483867E-4,0.0030775843,-4.7346315E-4
1705916796457,-4.6673307,-4.2678676,-7.5130553,-9.209576E-4,0.0027036208,-0.001085383
1705916796808,-4.6626725,-4.246665,-7.502726,-9.209576E-4,0.0027036208,-0.001085383
1705916796816,-4.6626725,-4.246665,-7.502726,-3.9655424E-5,0.002965332,-0.0014213382
1705916797066,-4.6416545,-4.25085,-7.501212,-3.9655424E-5,0.002965332,-0.0014213382
1705916797071,-4.6416545,-4.25085,-7.501212,-5.024405E-4,0.003101084,-0.0011573479
1705916797363,-4.6503415,-4.257236,-7.5166874,-5.024405E-4,0.003101084,-0.0011573479
1705916797366,-4.6503415,-4.257236,-7.5166874,-1.9730386E-4,0.002558558,-8.850715E-4
1705916797732,-4.675945,-4.2486076,-7.496447,-1.9730386E-4,0.002558558,-8.850715E-4
1705916797737,-4.675945,-4.2486076,-7.496447,-1.058667E-4,0.0028366477,-0.001539463
1705916797959,-4.665171,-4.2423553,-7.5191255,-1.058667E-4,0.0028366477,-0.001539463
1705916797966,-4.665171,-4.2423553,-7.5191255,-2.3021098E-4,0.005488427,-9.373813E-4
1705916798290,-4.648212,-4.2434897,-7.520843,-2.3021098E-4,0.005488427,-9.373813E-4
1705916798295,-4.648212,-4.2434897,-7.520843,-6.148514E-4,0.0024253032,-8.108163E-4
1705916798688,-4.655456,-4.238999,-7.499834,-6.148514E-4,0.0024253032,-8.108163E-4
1705916798695,-4.655456,-4.238999,-7.499834,-2.2255658E-4,0.0027044595,-0.0014777639
1705916798866,-4.6542854,-4.2526903,-7.499772,-2.2255658E-4,0.0027044595,-0.0014777639
1705916798871,-4.6542854,-4.2526903,-7.499772,-3.4143333E-4,0.0027043168,-0.0014109756
1705916799121,-4.6540585,-4.2653556,-7.50139,-3.4143333E-4,0.0027043168,-0.0014109756
1705916799127,-4.6540585,-4.2653556,-7.50139,4.7123793E-4,0.0020095815,-5.140388E-4
1705916799448,-4.6636357,-4.261132,-7.5104523,4.7123793E-4,0.0020095815,-5.140388E-4
1705916799451,-4.6636357,-4.261132,-7.5104523,-8.830332E-5,0.002026237,-9.618772E-4
1705916799805,-4.6480603,-4.2432003,-7.490666,-8.830332E-5,0.002026237,-9.618772E-4
1705916799812,-4.6480603,-4.2432003,-7.490666,-2.1975627E-4,0.0020330767,-0.0011958365
1705916800046,-4.6406546,-4.242292,-7.4914393,-2.1975627E-4,0.0020330767,-0.0011958365
1705916800052,-4.6406546,-4.242292,-7.4914393,-3.4143333E-4,0.0027043168,-0.0014109756
1705916800344,-4.645606,-4.2566867,-7.5002832,-3.4143333E-4,0.0027043168,-0.0014109756
1705916800351,-4.645606,-4.2566867,-7.5002832,-5.3506054E-5,0.0017683641,-0.0014485492
1705916800753,-4.6587615,-4.258273,-7.509746,-5.3506054E-5,0.0017683641,-0.0014485492
1705916800756,-4.6587615,-4.258273,-7.509746,-1.6528025E-4,0.00267676,-2.884625E-4
1705916800931,-4.6420507,-4.2528286,-7.4999275,-1.6528025E-4,0.00267676,-2.884625E-4
1705916800935,-4.6420507,-4.2528286,-7.4999275,-1.7541001E-4,0.0032161972,-5.750183E-4
1705916801261,-4.6417255,-4.247302,-7.4853816,-1.7541001E-4,0.0032161972,-5.750183E-4
1705916801264,-4.6417255,-4.247302,-7.4853816,-2.158371E-4,9.56921E-4,-9.21482E-4
1705916801667,-4.637409,-4.251252,-7.4856815,-2.158371E-4,9.56921E-4,-9.21482E-4
1705916801673,-4.637409,-4.251252,-7.4856815,-1.3295235E-4,0.0019107575,-0.0018593306
1705916801863,-4.6517034,-4.2642746,-7.507164,-1.3295235E-4,0.0019107575,-0.0018593306
1705916801868,-4.6517034,-4.2642746,-7.507164,-4.4305556E-4,0.0012250039,-7.859791E-4
1705916802130,-4.656472,-4.267184,-7.5056906,-4.4305556E-4,0.0012250039,-7.859791E-4
1705916802137,-4.656472,-4.267184,-7.5056906,-6.426241E-4,0.0018753796,-4.36891E-5
1705916802424,-4.672861,-4.2313466,-7.5268083,-6.426241E-4,0.0018753796,-4.36891E-5
1705916802431,-4.672861,-4.2313466,-7.5268083,6.934517E-5,0.0024330113,-0.0014981439
1705916802794,-4.6531706,-4.239073,-7.497759,6.934517E-5,0.0024330113,-0.0014981439
1705916802798,-4.6531706,-4.239073,-7.497759,-9.563133E-4,0.0030936524,-5.9942255E-4
1705916803025,-4.639309,-4.2548795,-7.4970455,-9.563133E-4,0.0030936524,-5.9942255E-4
1705916803030,-4.639309,-4.2548795,-7.4970455,1.6299583E-4,0.0022837482,-7.924159E-4
1705916803343,-4.6585,-4.272144,-7.5013347,1.6299583E-4,0.0022837482,-7.924159E-4
1705916803351,-4.6585,-4.272144,-7.5013347,8.250224E-4,0.0024061506,-7.012234E-4
1705916803747,-4.661327,-4.2592525,-7.508333,8.250224E-4,0.0024061506,-7.012234E-4
1705916803750,-4.661327,-4.2592525,-7.508333,-3.3649543E-4,0.001896629,-0.0011342341
1705916803925,-4.64755,-4.2361627,-7.499712,-3.3649543E-4,0.001896629,-0.0011342341
1705916803928,-4.64755,-4.2361627,-7.499712,-3.6196318E-5,0.0020298539,-0.0011475018
1705916804201,-4.639871,-4.2481484,-7.4920506,-3.6196318E-5,0.0020298539,-0.0011475018
1705916804206,-4.639871,-4.2481484,-7.4920506,-3.8081277E-4,0.0024255842,-9.423056E-4
1705916804496,-4.6426563,-4.2547054,-7.5030036,-3.8081277E-4,0.0024255842,-9.423056E-4
1705916804500,-4.6426563,-4.2547054,-7.5030036,-0.0010191413,0.002320538,-0.0018090163
1705916804852,-4.648485,-4.262217,-7.5133944,-0.0010191413,0.002320538,-0.0018090163
1705916804857,-4.648485,-4.262217,-7.5133944,5.510172E-4,0.0026950585,-0.0014579879
1705916805087,-4.653295,-4.2503805,-7.5159483,5.510172E-4,0.0026950585,-0.0014579879
1705916805090,-4.653295,-4.2503805,-7.5159483,-8.5937965E-4,0.002431896,-9.763608E-4
1705916805376,-4.629092,-4.254298,-7.4848404,-8.5937965E-4,0.002431896,-9.763608E-4
1705916805381,-4.629092,-4.254298,-7.4848404,-5.8804813E-4,0.0027110183,-0.0015802338
1705916805798,-4.657308,-4.2469893,-7.491184,-5.8804813E-4,0.0027110183,-0.0015802338
1705916805803,-4.657308,-4.2469893,-7.491184,3.795777E-5,0.0017511465,-7.377322E-4
1705916806011,-4.6596,-4.261432,-7.4992824,3.795777E-5,0.0017511465,-7.377322E-4
1705916806018,-4.6596,-4.261432,-7.4992824,-3.272288E-4,0.0026974473,-0.0011160289
1705916806314,-4.647051,-4.2622914,-7.5108414,-3.272288E-4,0.0026974473,-0.0011160289
1705916806320,-4.647051,-4.2622914,-7.5108414,-1.8961451E-4,0.003223067,-8.6996506E-4
1705916806727,-4.642393,-4.241089,-7.5005116,-1.8961451E-4,0.003223067,-8.6996506E-4
1705916806733,-4.642393,-4.241089,-7.5005116,-2.6735943E-6,5.6803063E-4,-0.0013606375
1705916806929,-4.63943,-4.242265,-7.493247,-2.6735943E-6,5.6803063E-4,-0.0013606375
1705916806935,-4.63943,-4.242265,-7.493247,2.3847373E-4,0.003213251,-6.560859E-4
1705916807185,-4.6494465,-4.2486267,-7.5090957,2.3847373E-4,0.003213251,-6.560859E-4
1705916807192,-4.6494465,-4.2486267,-7.5090957,4.687975E-4,0.0032135276,-7.8548805E-4
1705916807497,-4.645968,-4.256305,-7.5168767,4.687975E-4,0.0032135276,-7.8548805E-4
1705916807503,-4.645968,-4.256305,-7.5168767,2.4000168E-4,0.0033453007,-6.5308396E-4
1705916807868,-4.6527886,-4.261424,-7.503109,2.4000168E-4,0.0033453007,-6.5308396E-4
1705916807874,-4.6527886,-4.261424,-7.503109,-4.7688323E-4,0.001747085,-2.9701678E-4
1705916808086,-4.6570473,-4.256726,-7.4927354,-4.7688323E-4,0.001747085,-2.9701678E-4
1705916808091,-4.6570473,-4.256726,-7.4927354,6.7817164E-5,0.0023009614,-0.0015011458
1705916808386,-4.645516,-4.2488766,-7.5001054,6.7817164E-5,0.0023009614,-0.0015011458
1705916808391,-4.645516,-4.2488766,-7.5001054,6.1655825E-5,0.0017685024,-0.0015132503
1705916808764,-4.648915,-4.267124,-7.5121756,6.1655825E-5,0.0017685024,-0.0015132503
1705916808770,-4.648915,-4.267124,-7.5121756,-1.5048904E-4,0.0024258608,-0.0010717078
1705916808989,-4.655353,-4.2671065,-7.5096784,-1.5048904E-4,0.0024258608,-0.0010717078
1705916808994,-4.655353,-4.2671065,-7.5096784,9.3560014E-4,0.002010139,-7.7493023E-4
1705916809307,-4.6500525,-4.250504,-7.5121713,9.3560014E-4,0.002010139,-7.7493023E-4
1705916809312,-4.6500525,-4.250504,-7.5121713,-2.1359493E-4,0.002565536,-0.001183732
1705916809719,-4.640222,-4.2462215,-7.4906774,-2.1359493E-4,0.002565536,-0.001183732
1705916809724,-4.640222,-4.2462215,-7.4906774,4.706016E-4,0.0025732438,-0.0018710594
1705916809896,-4.6520457,-4.251966,-7.489804,4.706016E-4,0.0025732438,-0.0018710594
1705916809899,-4.6520457,-4.251966,-7.489804,6.0410195E-5,0.0022766276,-4.269673E-4
1705916810148,-4.6598163,-4.2758465,-7.509667,6.0410195E-5,0.0022766276,-4.269673E-4
1705916810152,-4.6598163,-4.2758465,-7.509667,5.8113004E-4,0.0021729728,-0.0019448632
1705916810478,-4.6451926,-4.271975,-7.5155296,5.8113004E-4,0.0021729728,-0.0019448632
1705916810483,-4.6451926,-4.271975,-7.5155296,-4.4239068E-4,0.002697309,-0.0010513278
1705916810845,-4.649445,-4.2527614,-7.4991326,-4.4239068E-4,0.002697309,-0.0010513278
1705916810851,-4.649445,-4.2527614,-7.4991326,2.1624798E-4,0.0019111768,-0.002055521
1705916811044,-4.646634,-4.2530885,-7.486154,2.1624798E-4,0.0019111768,-0.002055521
1705916811109,-4.646634,-4.2530885,-7.486154,8.416958E-4,0.0032313026,-0.0017571966
1705916811372,-4.6374884,-4.2580857,-7.485837,8.416958E-4,0.0032313026,-0.0017571966
1705916811375,-4.6374884,-4.2580857,-7.485837,2.2254171E-5,0.0033380417,-2.229343E-4
1705916811795,-4.648185,-4.254508,-7.5088553,2.2254171E-5,0.0033380417,-2.229343E-4
1705916811799,-4.648185,-4.254508,-7.5088553,2.972224E-4,0.0019008332,-0.0016417378
1705916817819,-4.6562057,-4.262404,-7.501218,0.0,0.0,0.0
1705916817829,-4.6562057,-4.262404,-7.501218,1.6058912E-6,0.002172277,-0.0016192705
1705916818090,-4.630632,-4.254173,-7.489575,1.6058912E-6,0.002172277,-0.0016192705
1705916818100,-4.630632,-4.254173,-7.489575,-2.7369405E-4,0.002965051,-0.0012898489
1705916818274,-4.6345673,-4.272573,-7.4946246,-2.7369405E-4,0.002965051,-0.0012898489
1705916818292,-4.6345673,-4.272573,-7.4946246,-3.0940972E-4,0.0028225193,-8.1436656E-4
1705916818503,-4.6708164,-4.2700024,-7.5033154,-3.0940972E-4,0.0028225193,-8.1436656E-4
1705916818520,-4.6708164,-4.2700024,-7.5033154,1.3713358E-4,0.002698005,-0.0013769204
1705916818860,-4.660124,-4.265312,-7.5002227,1.3713358E-4,0.002698005,-0.0013769204
1705916818870,-4.660124,-4.265312,-7.5002227,-7.257078E-5,0.0021514173,-6.639285E-4
1705916819100,-4.6384854,-4.243291,-7.491567,-7.257078E-5,0.0021514173,-6.639285E-4
1705916819114,-4.6384854,-4.243291,-7.491567,-3.8697408E-4,0.0018931251,-9.544102E-4
1705916819387,-4.636046,-4.2483473,-7.485242,-3.8697408E-4,0.0018931251,-9.544102E-4
1705916819397,-4.636046,-4.2483473,-7.485242,-2.0346517E-4,0.0020260988,-8.971761E-4
1705916819790,-4.647262,-4.256918,-7.489275,-2.0346517E-4,0.0020260988,-8.971761E-4
1705916819803,-4.647262,-4.256918,-7.489275,-3.0599983E-4,0.0018827815,-5.40627E-4
1705916820017,-4.663566,-4.2594075,-7.500356,-3.0599983E-4,0.0018827815,-5.40627E-4
1705916820030,-4.663566,-4.2594075,-7.500356,-3.7465146E-4,0.0029580432,-9.3020103E-4
1705916820323,-4.6439147,-4.257661,-7.501262,-3.7465146E-4,0.0029580432,-9.3020103E-4
1705916820337,-4.6439147,-4.257661,-7.501262,-5.5602455E-4,0.0028292206,-9.836247E-4
1705916820757,-4.6428328,-4.2511063,-7.489353,-5.5602455E-4,0.0028292206,-9.836247E-4
1705916820771,-4.6428328,-4.2511063,-7.489353,-4.9286935E-4,0.0026938051,-8.7150384E-4
1705916820927,-4.645154,-4.249258,-7.4835124,-4.9286935E-4,0.0026938051,-8.7150384E-4
1705916820941,-4.645154,-4.249258,-7.4835124,4.411908E-5,0.0022836055,-7.2562764E-4
1705916821173,-4.655822,-4.261402,-7.5025253,4.411908E-5,0.0022836055,-7.2562764E-4
1705916821187,-4.655822,-4.261402,-7.5025253,-2.850697E-5,0.0026943628,-0.0011323954
1705916821506,-4.6446705,-4.263392,-7.506607,-2.850697E-5,0.0026943628,-0.0011323954
1705916821520,-4.6446705,-4.263392,-7.506607,2.8431905E-4,0.0028163455,-8.4501243E-4
1705916821872,-4.6523595,-4.256517,-7.504328,2.8431905E-4,0.0028163455,-8.4501243E-4
1705916821881,-4.6523595,-4.256517,-7.504328,-3.1404302E-4,0.0024221102,-8.234692E-4
1705916822091,-4.647708,-4.2492614,-7.4820776,-3.1404302E-4,0.0024221102,-8.234692E-4
1705916822105,-4.647708,-4.2492614,-7.4820776,-2.2102857E-4,0.0028365094,-0.0014747619
1705916822366,-4.638889,-4.2550826,-7.4883237,-2.2102857E-4,0.0028365094,-0.0014747619
1705916822382,-4.638889,-4.2550826,-7.4883237,3.929657E-4,0.0034878622,-0.0011895538
1705916822812,-4.643772,-4.26362,-7.497034,3.929657E-4,0.0034878622,-0.0011895538
1705916822823,-4.643772,-4.26362,-7.497034,1.9718352E-4,0.0022942303,-0.0012709001
1705916822997,-4.6518664,-4.2644024,-7.5014734,1.9718352E-4,0.0022942303,-0.0012709001
1705916823014,-4.6518664,-4.2644024,-7.5014734,-2.2874042E-4,0.0018724333,-1.247567E-4
1705916823313,-4.6393933,-4.248173,-7.4912,-2.2874042E-4,0.0018724333,-1.247567E-4
1705916823326,-4.6393933,-4.248173,-7.4912,2.0797813E-4,0.0032270986,-0.001249693
1705916823572,-4.646645,-4.2540646,-7.4861765,2.0797813E-4,0.0032270986,-0.001249693
1705916823586,-4.646645,-4.2540646,-7.4861765,5.6544854E-4,0.0019115962,-0.0022517114
1705916823928,-4.643729,-4.255012,-7.4889636,5.6544854E-4,0.0019115962,-0.0022517114
1705916823941,-4.643729,-4.255012,-7.4889636,-1.0370234E-4,0.0024050353,-1.7944037E-4
1705916824165,-4.657277,-4.267983,-7.513105,-1.0370234E-4,0.0024050353,-1.7944037E-4
1705916824192,-4.657277,-4.267983,-7.513105,1.1366239E-4,0.0019040561,-0.0016900724
1705916824487,-4.6514726,-4.2577205,-7.4947767,1.1366239E-4,0.0019040561,-0.0016900724
1705916824500,-4.6514726,-4.2577205,-7.4947767,7.883655E-4,0.0018875388,-0.001306935
1705916824854,-4.63832,-4.247298,-7.4872947,7.883655E-4,0.0018875388,-0.001306935
1705916824867,-4.63832,-4.247298,-7.4872947,3.6190555E-4,0.0018974675,-0.0015266149
1705916825049,-4.634302,-4.2630906,-7.48217,3.6190555E-4,0.0018974675,-0.0015266149
1705916825059,-4.634302,-4.2630906,-7.48217,-5.1786844E-4,0.0017678066,-0.0011876577
1705916825349,-4.646052,-4.2812204,-7.4951477,-5.1786844E-4,0.0017678066,-0.0011876577
1705916825358,-4.646052,-4.2812204,-7.4951477,-3.7154614E-4,0.0032264027,-9.2410034E-4
1705916825804,-4.6514807,-4.268103,-7.5107627,-3.7154614E-4,0.0032264027,-9.2410034E-4
1705916825819,-4.6514807,-4.268103,-7.5107627,-3.4476543E-4,0.0032125507,-3.2840617E-4
1705916825955,-4.6543784,-4.251663,-7.50193,-3.4476543E-4,0.0032125507,-3.2840617E-4
1705916825962,-4.6543784,-4.251663,-7.50193,-1.6556267E-4,0.002036585,-0.0013777474
1705916826306,-4.6416807,-4.2433968,-7.485293,-1.6556267E-4,0.002036585,-0.0013777474
1705916826312,-4.6416807,-4.2433968,-7.485293,1.9718352E-4,0.0022942303,-0.0012709001
1705916826551,-4.638202,-4.2510753,-7.493074,1.9718352E-4,0.0022942303,-0.0012709001
1705916826559,-4.638202,-4.2510753,-7.493074,-2.3052197E-4,0.002812284,-4.0429702E-4
1705916826912,-4.645899,-4.254582,-7.50678,-2.3052197E-4,0.002812284,-4.0429702E-4
1705916826925,-4.645899,-4.254582,-7.50678,1.8636668E-4,0.0032096342,-4.7046124E-4
1705916827137,-4.663999,-4.256047,-7.5190635,1.8636668E-4,0.0032096342,-4.7046124E-4
1705916827151,-4.663999,-4.256047,-7.5190635,-5.6371384E-4,0.0021647117,-9.987312E-4
1705916827467,-4.650941,-4.2440276,-7.4957952,-5.6371384E-4,0.0021647117,-9.987312E-4
1705916827478,-4.650941,-4.2440276,-7.4957952,7.9089E-4,0.004136328,-4.7989993E-4
1705916827868,-4.6414785,-4.2538805,-7.4969177,7.9089E-4,0.004136328,-4.7989993E-4
1705916827880,-4.6414785,-4.2538805,-7.4969177,-2.0040915E-4,0.0022901986,-8.911722E-4
1705916828048,-4.6428757,-4.259714,-7.497423,-2.0040915E-4,0.0022901986,-8.911722E-4
1705916828062,-4.6428757,-4.259714,-7.497423,4.0100893E-4,0.0029485337,-9.0671156E-4
1705916828338,-4.6604614,-4.2671127,-7.5068083,4.0100893E-4,0.0029485337,-9.0671156E-4
1705916828349,-4.6604614,-4.2671127,-7.5068083,2.8996146E-5,0.0018900703,-0.0010317642
1705916828765,-4.661237,-4.2514424,-7.508156,2.8996146E-5,0.0018900703,-0.0010317642
1705916828773,-4.661237,-4.2514424,-7.508156,-7.8875455E-6,0.0021480517,-5.488057E-4
1705916828946,-4.6431117,-4.252159,-7.485865,-7.8875455E-6,0.0021480517,-5.488057E-4
1705916828957,-4.6431117,-4.252159,-7.485865,4.4074227E-4,0.002023429,-0.0011076459
1705916829267,-4.649098,-4.24585,-7.5024867,4.4074227E-4,0.002023429,-0.0011076459
1705916829279,-4.649098,-4.24585,-7.5024867,1.1190763E-4,0.0025485994,-6.0440414E-4
1705916829611,-4.66023,-4.2611275,-7.5123653,1.1190763E-4,0.0025485994,-6.0440414E-4
1705916829622,-4.66023,-4.2611275,-7.5123653,-5.4683606E-4,0.0019137037,-0.0017782629
1705916829878,-4.6484575,-4.2732353,-7.5014057,-5.4683606E-4,0.0019137037,-0.0017782629
1705916829890,-4.6484575,-4.2732353,-7.5014057,-2.084655E-5,0.0016467962,-0.0019300355
1705916830140,-4.65902,-4.2532396,-7.5161767,-2.084655E-5,0.0016467962,-0.0019300355
1705916830149,-4.65902,-4.2532396,-7.5161767,8.056753E-4,0.0021490285,-0.0010058875
1705916830449,-4.645401,-4.2432485,-7.4899206,8.056753E-4,0.0021490285,-0.0010058875
1705916830459,-4.645401,-4.2432485,-7.4899206,-7.0756086E-4,0.0029506458,-4.3535032E-4
1705916830816,-4.640344,-4.261664,-7.498903,-7.0756086E-4,0.0029506458,-4.3535032E-4
1705916830826,-4.640344,-4.261664,-7.498903,9.897759E-5,0.003759419,-0.0011728874
1705916831031,-4.6531153,-4.2622476,-7.509673,9.897759E-5,0.003759419,-0.0011728874
1705916831041,-4.6531153,-4.2622476,-7.509673,-4.959746E-4,0.002425446,-8.776045E-4
1705916831344,-4.6543436,-4.253438,-7.509846,-4.959746E-4,0.002425446,-8.776045E-4
1705916831353,-4.6543436,-4.253438,-7.509846,-2.9243162E-4,0.0024395746,-0.0016027009
1705916831785,-4.64406,-4.242296,-7.489526,-2.9243162E-4,0.0024395746,-0.0016027009
1705916831798,-4.64406,-4.242296,-7.489526,6.905134E-4,0.0021488904,-9.411865E-4
1705916831963,-4.63944,-4.2473755,-7.4833064,6.905134E-4,0.0021488904,-9.411865E-4
1705916831974,-4.63944,-4.2473755,-7.4833064,-2.545095E-5,0.0029584626,-0.0011263915
1705916832261,-4.650585,-4.2594943,-7.50317,-2.545095E-5,0.0029584626,-0.0011263915
1705916832271,-4.650585,-4.2594943,-7.50317,-5.6253973E-4,0.0035005987,-0.001263465
1705916832534,-4.6546793,-4.2593718,-7.5064697,-5.6253973E-4,0.0035005987,-0.001263465
1705916832544,-4.6546793,-4.2593718,-7.5064697,-0.0011657908,0.0017704718,-9.751009E-4
1705916832915,-4.65002,-4.2428718,-7.5041223,-0.0011657908,0.0017704718,-9.751009E-4
1705916832923,-4.65002,-4.2428718,-7.5041223,6.54139E-4,0.0022704538,-4.576132E-4
1705916833134,-4.6545258,-4.2321644,-7.500157,6.54139E-4,0.0022704538,-4.576132E-4
1705916833140,-4.6545258,-4.2321644,-7.500157,1.309723E-4,0.002165546,-0.0013890249
1705916833423,-4.635275,-4.251046,-7.495838,1.309723E-4,0.002165546,-0.0013890249
1705916833433,-4.635275,-4.251046,-7.495838,0.0010553462,0.002406427,-8.3062565E-4
1705916833840,-4.6524367,-4.267484,-7.49452,0.0010553462,0.002406427,-8.3062565E-4
1705916833849,-4.6524367,-4.267484,-7.49452,-1.03984814E-4,0.0017648602,-0.0012687254
1705916834006,-4.6582804,-4.267135,-7.506914,-1.03984814E-4,0.0017648602,-0.0012687254
1705916834012,-4.6582804,-4.267135,-7.506914,6.0025044E-4,0.003206688,-5.515288E-4
1705916834340,-4.655061,-4.2370205,-7.501119,6.0025044E-4,0.003206688,-5.515288E-4
1705916834351,-4.655061,-4.2370205,-7.501119,-5.3229986E-4,0.002551269,-3.9393437E-4
1705916834745,-4.63659,-4.258314,-7.476264,-5.3229986E-4,0.002551269,-3.9393437E-4
1705916834760,-4.63659,-4.258314,-7.476264,7.887193E-4,6.8370154E-4,-0.0010391993
1705916834951,-4.6377354,-4.252076,-7.492245,7.887193E-4,6.8370154E-4,-0.0010391993
1705916834961,-4.6377354,-4.252076,-7.492245,-8.1531587E-4,0.0029748415,-0.0014448278
1705916835180,-4.6467695,-4.2653723,-7.504366,-8.1531587E-4,0.0029748415,-0.0014448278
1705916835184,-4.6467695,-4.2653723,-7.504366,4.5647487E-4,0.0021486094,-8.096972E-4
1705916835510,-4.6575255,-4.256701,-7.4935865,4.5647487E-4,0.0021486094,-8.096972E-4
1705916835518,-4.6575255,-4.256701,-7.4935865,1.3402832E-4,0.0024296457,-0.001383021
1705916835867,-4.6454124,-4.244225,-7.489943,1.3402832E-4,0.0024296457,-0.001383021
1705916835875,-4.6454124,-4.244225,-7.489943,-4.565952E-4,0.0027041784,-0.0013462745
1705916836101,-4.645495,-4.2422214,-7.492079,-4.565952E-4,0.0027041784,-0.0013462745
1705916836110,-4.645495,-4.2422214,-7.492079,-2.7797354E-4,0.0013608044,-0.0010312158
1705916836410,-4.642126,-4.2684994,-7.4981017,-2.7797354E-4,0.0013608044,-0.0010312158
1705916836420,-4.642126,-4.2684994,-7.4981017,-1.0716787E-5,0.0011073591,-0.0016434797
1705916836831,-4.658829,-4.2641306,-7.509879,-1.0716787E-5,0.0011073591,-0.0016434797
1705916836839,-4.658829,-4.2641306,-7.509879,1.706563E-4,0.0012361817,-0.001590056
1705916837008,-4.671541,-4.23648,-7.5164957,1.706563E-4,0.0012361817,-0.001590056
1705916837016,-4.671541,-4.23648,-7.5164957,-2.7827808E-4,0.0025689015,-0.0012988547
1705916837320,-4.64144,-4.2323017,-7.5007906,-2.7827808E-4,0.0025689015,-0.0012988547
1705916837329,-4.64144,-4.2323017,-7.5007906,7.298436E-4,0.0024233635,-0.0014099533
1705916837597,-4.64227,-4.257837,-7.494347,7.298436E-4,0.0024233635,-0.0014099533
1705916837607,-4.64227,-4.257837,-7.494347,-6.554632E-5,0.0013436209,-3.8347338E-4
1705916837954,-4.662201,-4.261206,-7.5078993,-6.554632E-5,0.0013436209,-3.8347338E-4
1705916837963,-4.662201,-4.261206,-7.5078993,-3.7923548E-4,0.0025618938,-9.3920686E-4
1705916838169,-4.648984,-4.268847,-7.5222716,-3.7923548E-4,0.0025618938,-9.3920686E-4
1705916838186,-4.648984,-4.268847,-7.5222716,3.6348286E-4,0.002033777,-0.0015235161
1705916838496,-4.644729,-4.26357,-7.498737,3.6348286E-4,0.002033777,-0.0015235161
1705916838504,-4.644729,-4.26357,-7.498737,-1.5930767E-5,0.0026873802,-8.316479E-4
1705916838855,-4.65097,-4.2599273,-7.483918,-1.5930767E-5,0.0026873802,-8.316479E-4
1705916838864,-4.65097,-4.2599273,-7.483918,2.150026E-4,0.002419302,-9.692379E-4
1705916839070,-4.639889,-4.263072,-7.480151,2.150026E-4,0.002419302,-9.692379E-4
1705916839078,-4.639889,-4.263072,-7.480151,-1.8157133E-4,0.002683738,-5.8712286E-4
1705916839354,-4.6418858,-4.256835,-7.495655,-1.8157133E-4,0.002683738,-5.8712286E-4
1705916839361,-4.6418858,-4.256835,-7.495655,-5.5449654E-4,0.0029612705,-9.806228E-4
1705916839771,-4.64735,-4.2419434,-7.503355,-5.5449654E-4,0.0029612705,-9.806228E-4
1705916839779,-4.64735,-4.2419434,-7.503355,-4.4305556E-4,0.0012250039,-7.859791E-4
1705916839990,-4.6641254,-4.2287545,-7.4733744,-4.4305556E-4,0.0012250039,-7.859791E-4
1705916839999,-4.6641254,-4.2287545,-7.4733744,1.2203738E-4,0.0020091622,-3.1784835E-4
1705916840300,-4.6677628,-4.2042603,-7.5176764,1.2203738E-4,0.0020091622,-3.1784835E-4
1705916840307,-4.6677628,-4.2042603,-7.5176764,4.6617002E-5,0.004827703,-0.0012638011
1705916840728,-4.620313,-4.2465124,-7.531005,4.6617002E-5,0.004827703,-0.0012638011
1705916840736,-4.620313,-4.2465124,-7.531005,4.4408074E-4,0.0029277038,-1.2357021E-5
1705916840895,-4.6528115,-4.263376,-7.5031533,4.4408074E-4,0.0029277038,-1.2357021E-5
1705916840904,-4.6528115,-4.263376,-7.5031533,0.0012154616,0.0013139476,2.6976556E-4
1705916841141,-4.658409,-4.263765,-7.483212,0.0012154616,0.0013139476,2.6976556E-4
1705916841146,-4.658409,-4.263765,-7.483212,-6.400548E-4,0.0025754648,-0.0014034117
1705916841476,-4.642036,-4.2601204,-7.4799795,-6.400548E-4,0.0025754648,-0.0014034117
1705916841484,-4.642036,-4.2601204,-7.4799795,5.433278E-4,0.0020305496,-0.0014730943
1705916841844,-4.625113,-4.260049,-7.4917264,5.433278E-4,0.0020305496,-0.0014730943
1705916841852,-4.625113,-4.260049,-7.4917264,-6.330303E-4,0.0017676683,-0.0011229566
1705916842039,-4.652474,-4.261576,-7.4965672,-6.330303E-4,0.0017676683,-0.0011229566
1705916842044,-4.652474,-4.261576,-7.4965672,-5.338772E-4,0.0024149595,-3.9703312E-4
1705916842365,-4.6659946,-4.253375,-7.5066595,-5.338772E-4,0.0024149595,-3.9703312E-4
1705916842373,-4.6659946,-4.253375,-7.5066595,6.054642E-4,0.0016266665,-0.0013633606
1705916842807,-4.6470027,-4.2350335,-7.5067096,6.054642E-4,0.0016266665,-0.0013633606
1705916842812,-4.6470027,-4.2350335,-7.5067096,0.0010076903,0.0020311072,-0.001733986
1705916842959,-4.6433215,-4.2520576,-7.4902263,0.0010076903,0.0020311072,-0.001733986
1705916842965,-4.6433215,-4.2520576,-7.4902263,9.574158E-4,9.514433E-4,-0.0012777206
1705916843278,-4.6484237,-4.2697377,-7.4833946,9.574158E-4,9.514433E-4,-0.0012777206
1705916843287,-4.6484237,-4.2697377,-7.4833946,-3.124657E-4,0.0025584197,-8.2037045E-4
1705916843551,-4.655225,-4.2652044,-7.507453,-3.124657E-4,0.0025584197,-8.2037045E-4
1705916843557,-4.655225,-4.2652044,-7.507453,1.9227446E-4,0.0048139933,-7.3489506E-4
1705916843908,-4.641884,-4.262107,-7.5215816,1.9227446E-4,0.0048139933,-7.3489506E-4
1705916843917,-4.641884,-4.262107,-7.5215816,4.2896107E-5,0.003091298,-0.0010044563
1705916844138,-4.632456,-4.2421293,-7.5027637,4.2896107E-5,0.003091298,-0.0010044563
1705916844146,-4.632456,-4.2421293,-7.5027637,1.6146782E-4,0.0021516983,-7.954178E-4
1705916844449,-4.6432877,-4.249129,-7.4901595,1.6146782E-4,0.0021516983,-7.954178E-4
1705916844457,-4.6432877,-4.249129,-7.4901595,-3.645217E-4,0.002418606,-6.436453E-4
1705916844820,-4.6528225,-4.264353,-7.5031753,-3.645217E-4,0.002418606,-6.436453E-4
1705916844835,-4.6528225,-4.264353,-7.5031753,7.0922426E-5,0.0025693208,-0.0014950451
1705916845036,-4.646115,-4.2689962,-7.517165,7.0922426E-5,0.0025693208,-0.0014950451
1705916845044,-4.646115,-4.2689962,-7.517165,-2.860167E-4,0.0019001329,-0.001314058
1705916845350,-4.654036,-4.263403,-7.5013456,-2.860167E-4,0.0019001329,-0.001314058
1705916845359,-4.654036,-4.263403,-7.5013456,-3.7923548E-4,0.0025618938,-9.3920686E-4
1705916845627,-4.6296268,-4.2585855,-7.467858,-3.7923548E-4,0.0025618938,-9.3920686E-4
1705916845635,-4.6296268,-4.2585855,-7.467858,-3.2417278E-4,0.002961547,-0.001110025
1705916845962,-4.6382422,-4.2679515,-7.481219,-3.2417278E-4,0.002961547,-0.001110025
1705916845967,-4.6382422,-4.2679515,-7.481219,-4.2304356E-4,0.0029544309,-7.4666354E-4
1705916846274,-4.641561,-4.284067,-7.501116,-4.2304356E-4,0.0029544309,-7.4666354E-4
1705916846281,-4.641561,-4.284067,-7.501116,3.2101438E-5,0.0021584297,-0.0010256635
1705916846543,-4.6227574,-4.259537,-7.5154448,3.2101438E-5,0.0021584297,-0.0010256635
1705916846550,-4.6227574,-4.259537,-7.5154448,-3.4912268E-4,0.0020398078,-0.0014260821
1705916846927,-4.653634,-4.2474775,-7.514552,-3.4912268E-4,0.0020398078,-0.0014260821
1705916846938,-4.653634,-4.2474775,-7.514552,-8.6706894E-4,0.0017673873,-9.914673E-4
1705916847104,-4.6479893,-4.24618,-7.4885526,-8.6706894E-4,0.0017673873,-9.914673E-4
1705916847111,-4.6479893,-4.24618,-7.4885526,1.8914026E-4,0.0028335587,-0.0015537423
1705916847437,-4.6251874,-4.2488017,-7.513766,1.8914026E-4,0.0028335587,-0.0015537423
1705916847445,-4.6251874,-4.2488017,-7.513766,-0.0014108776,0.001909223,-0.0011413571
1705916847805,-4.6249466,-4.2693276,-7.5133815,-0.0014108776,0.001909223,-0.0011413571
1705916847814,-4.6249466,-4.2693276,-7.5133815,-1.8157133E-4,0.002683738,-5.8712286E-4
1705916848026,-4.6683064,-4.246417,-7.5107594,-1.8157133E-4,0.002683738,-5.8712286E-4
1705916848035,-4.6683064,-4.246417,-7.5107594,0.0012309344,0.0010985201,-0.0018866824
1705916848345,-4.671502,-4.2459536,-7.4865403,0.0012309344,0.0010985201,-0.0018866824
1705916848353,-4.671502,-4.2459536,-7.4865403,1.1959695E-4,0.0032131083,-5.892977E-4
1705916848753,-4.6508293,-4.2617526,-7.4896526,1.1959695E-4,0.0032131083,-5.892977E-4
1705916848764,-4.6508293,-4.2617526,-7.4896526,2.5940128E-5,0.0016259707,-0.001037768
1705916848931,-4.6309934,-4.285413,-7.4902854,2.5940128E-5,0.0016259707,-0.001037768
1705916848940,-4.6309934,-4.285413,-7.4902854,-2.3204998E-4,0.0026802341,-4.0729894E-4
1705916849204,-4.6517487,-4.2681794,-7.5072527,-2.3204998E-4,0.0026802341,-4.0729894E-4
1705916849214,-4.6517487,-4.2681794,-7.5072527,5.6237006E-4,0.0013479292,-8.9260354E-4
1705916849523,-4.6504936,-4.256387,-7.510975,5.6237006E-4,0.0013479292,-8.9260354E-4
1705916849530,-4.6504936,-4.256387,-7.510975,-4.439187E-4,0.0025652593,-0.0010543297
1705916849880,-4.6469374,-4.251391,-7.4747286,-4.439187E-4,0.0025652593,-0.0010543297
1705916849889,-4.6469374,-4.251391,-7.4747286,-9.1138633E-4,0.0022963423,-7.995389E-4
1705916850119,-4.6453347,-4.2648783,-7.4838676,-9.1138633E-4,0.0022963423,-7.995389E-4
1705916850129,-4.6453347,-4.2648783,-7.4838676,3.773335E-4,0.0032307452,-0.0014963052
1705916850418,-4.6647363,-4.2509885,-7.5263453,3.773335E-4,0.0032307452,-0.0014963052
1705916850426,-4.6647363,-4.2509885,-7.5263453,-0.0010253248,0.0036363509,-9.994748E-4
1705916850830,-4.6545887,-4.252131,-7.524236,-0.0010253248,0.0036363509,-9.994748E-4
1705916850838,-4.6545887,-4.252131,-7.524236,-2.5241583E-4,0.0021546446,-7.1435026E-4
1705916851014,-4.6545577,-4.2392273,-7.4902606,-2.5241583E-4,0.0021546446,-7.1435026E-4
1705916851021,-4.6545577,-4.2392273,-7.4902606,-5.1786844E-4,0.0017678066,-0.0011876577
1705916851328,-4.639848,-4.246196,-7.4920063,-5.1786844E-4,0.0017678066,-0.0011876577
1705916851336,-4.639848,-4.246196,-7.4920063,-4.1408197E-4,0.002815507,-4.5263162E-4
1705916851628,-4.6391115,-4.251823,-7.5026693,-4.1408197E-4,0.002815507,-4.5263162E-4
1705916851633,-4.6391115,-4.251823,-7.5026693,-2.905719E-4,0.003216059,-5.103172E-4
1705916851940,-4.654944,-4.2682853,-7.500978,-2.905719E-4,0.003216059,-5.103172E-4
1705916851947,-4.654944,-4.2682853,-7.500978,-5.942094E-4,0.0021785593,-0.0015923383
1705916852177,-4.650212,-4.259468,-7.5044994,-5.942094E-4,0.0021785593,-0.0015923383
1705916852181,-4.650212,-4.259468,-7.5044994,3.42841E-4,0.002280521,-7.419942E-4
1705916852502,-4.6492267,-4.243049,-7.4967294,3.42841E-4,0.002280521,-7.419942E-4
1705916852507,-4.6492267,-4.243049,-7.4967294,-2.2286156E-4,0.0017647174,-0.0012019372
1705916852869,-4.632044,-4.252146,-7.4920835,-2.2286156E-4,0.0017647174,-0.0012019372
1705916852880,-4.632044,-4.252146,-7.4920835,7.6316204E-4,0.0020377,-0.0018995304
1705916853079,-4.659482,-4.2652097,-7.505061,7.6316204E-4,0.0020377,-0.0018995304
1705916853083,-4.659482,-4.2652097,-7.505061,5.7626993E-4,0.002549157,-8.6529565E-4
1705916853364,-4.6587615,-4.258273,-7.509746,5.7626993E-4,0.002549157,-8.6529565E-4
1705916853371,-4.6587615,-4.258273,-7.509746,-5.6279692E-5,0.0021444394,-3.6526815E-4
1705916853765,-4.6397047,-4.256858,-7.49576,-5.6279692E-5,0.0021444394,-3.6526815E-4
1705916853772,-4.6397047,-4.256858,-7.49576,8.219664E-4,0.0021420508,-7.072273E-4
1705916853994,-4.6486697,-4.2362404,-7.4957237,8.219664E-4,0.0021420508,-7.072273E-4
1705916854001,-4.6486697,-4.2362404,-7.4957237,6.4762373E-4,0.0029418324,-7.3745346E-4
1705916854318,-4.643684,-4.251107,-7.488875,6.4762373E-4,0.0029418324,-7.3745346E-4
1705916854325,-4.643684,-4.251107,-7.488875,6.920415E-4,0.0022809403,-9.3818456E-4
1705916854738,-4.647281,-4.268276,-7.505283,6.920415E-4,0.0022809403,-9.3818456E-4
1705916854746,-4.647281,-4.268276,-7.505283,-3.9313541E-4,0.0013606661,-9.665147E-4
1705916854922,-4.646729,-4.248496,-7.5162206,-3.9313541E-4,0.0013606661,-9.665147E-4
1705916854933,-4.646729,-4.248496,-7.5162206,-1.5787332E-4,0.002701094,-0.001362641
1705916855151,-4.648308,-4.2371907,-7.4970746,-1.5787332E-4,0.002701094,-0.001362641
1705916855157,-4.648308,-4.2371907,-7.4970746,-2.3515528E-4,0.002411875,-4.1339963E-4
1705916855476,-4.651655,-4.2370167,-7.503032,-2.3515528E-4,0.002411875,-4.1339963E-4
1705916855480,-4.651655,-4.2370167,-7.503032,-1.7541001E-4,0.0032161972,-5.750183E-4
1705916855831,-4.650832,-4.2534842,-7.509578,-1.7541001E-4,0.0032161972,-5.750183E-4
1705916855836,-4.650832,-4.2534842,-7.509578,-7.7557954E-5,0.0029548458,-9.407668E-4
1705916856080,-4.6496387,-4.265223,-7.509473,-7.7557954E-5,0.0029548458,-9.407668E-4
1705916856091,-4.6496387,-4.265223,-7.509473,3.06184E-4,0.0017619095,-0.0013477057
1705916856373,-4.6537037,-4.248632,-7.506704,3.06184E-4,0.0017619095,-0.0013477057
1705916856385,-4.6537037,-4.248632,-7.506704,9.434426E-5,0.00335901,-0.0011819899
1705916856764,-4.648078,-4.258124,-7.478767,9.434426E-5,0.00335901,-0.0011819899
1705916856772,-4.648078,-4.258124,-7.478767,-8.73811E-4,0.0032153586,-1.8263748E-4
1705916856938,-4.6285577,-4.2494416,-7.4838786,-8.73811E-4,0.0032153586,-1.8263748E-4
1705916856942,-4.6285577,-4.2494416,-7.4838786,-1.4994293E-6,0.0019039178,-0.0016253713
1705916857292,-4.6424637,-4.2697306,-7.486743,-1.4994293E-6,0.0019039178,-0.0016253713
1705916857299,-4.6424637,-4.2697306,-7.486743,3.8262777E-5,0.0026908887,-0.0010135589
1705916857703,-4.6514363,-4.2594953,-7.5026917,3.8262777E-5,0.0026908887,-0.0010135589
1705916857711,-4.6514363,-4.2594953,-7.5026917,-7.7224406E-4,0.0029540116,-5.504731E-4
1705916857880,-4.650391,-4.247032,-7.49283,-7.7224406E-4,0.0029540116,-5.504731E-4
1705916857887,-4.650391,-4.247032,-7.49283,-3.4143333E-4,0.0027043168,-0.0014109756
1705916858135,-4.64708,-4.246001,-7.496902,-3.4143333E-4,0.0027043168,-0.0014109756
1705916858141,-4.64708,-4.246001,-7.496902,-3.6017084E-4,0.0021788403,-0.0017238277
1705916858465,-4.6453123,-4.2634945,-7.5017686,-3.6017084E-4,0.0021788403,-0.0017238277
1705916858472,-4.6453123,-4.2634945,-7.5017686,1.9871152E-4,0.0024262802,-0.0012678981
1705916858831,-4.656414,-4.267006,-7.513561,1.9871152E-4,0.0024262802,-0.0012678981
1705916858841,-4.656414,-4.267006,-7.513561,4.5336955E-4,0.0018802499,-8.1579783E-4
1705916859061,-4.6520896,-4.261143,-7.5158195,4.5336955E-4,0.0018802499,-8.1579783E-4
1705916859069,-4.6520896,-4.261143,-7.5158195,5.494892E-4,0.0025630088,-0.0014609898
1705916859356,-4.65646,-4.2381516,-7.4936433,5.494892E-4,0.0025630088,-0.0014609898
1705916859363,-4.65646,-4.2381516,-7.4936433,3.2777328E-4,0.003627646,-0.0013052914
1705916859747,-4.639792,-4.241315,-7.491895,3.2777328E-4,0.003627646,-0.0013052914
1705916859754,-4.639792,-4.241315,-7.491895,2.2920707E-4,0.0024124326,-6.7429116E-4
1705916859937,-4.6493626,-4.254764,-7.496996,2.2920707E-4,0.0024124326,-6.7429116E-4
1705916859945,-4.6493626,-4.254764,-7.496996,-2.8443942E-4,0.0020364423,-0.0013109592
1705916860265,-4.6586776,-4.2649794,-7.515591,-2.8443942E-4,0.0020364423,-0.0013109592
1705916860271,-4.6586776,-4.2649794,-7.515591,1.688526E-4,0.0040243035,-0.0010479502
1705916860697,-4.6618342,-4.243506,-7.51319,1.688526E-4,0.0040243035,-0.0010479502
1705916860704,-4.6618342,-4.243506,-7.51319,-6.225407E-4,0.0017607943,-8.2592276E-4
1705916860880,-4.6426353,-4.2480497,-7.494977,-6.225407E-4,0.0017607943,-8.2592276E-4
1705916860891,-4.6426353,-4.2480497,-7.494977,-2.5197398E-5,0.0018865619,-8.498531E-4
1705916861138,-4.6371408,-4.251176,-7.4891915,-2.5197398E-5,0.0018865619,-8.498531E-4
1705916861142,-4.6371408,-4.251176,-7.4891915,3.964249E-4,0.0025523843,-9.157174E-4
1705916861445,-4.6449018,-4.2693768,-7.50105,3.964249E-4,0.0025523843,-9.157174E-4
1705916861449,-4.6449018,-4.2693768,-7.50105,-1.07090134E-4,0.0014965009,-0.001274826
1705916861845,-4.6460004,-4.263368,-7.50698,-1.07090134E-4,0.0014965009,-0.001274826
1705916861850,-4.6460004,-4.263368,-7.50698,-5.0366396E-4,0.001760937,-8.92711E-4
1705916862045,-4.6479993,-4.251859,-7.4965568,-5.0366396E-4,0.001760937,-8.92711E-4
1705916862052,-4.6479993,-4.251859,-7.4965568,-4.5165728E-4,0.0018964907,-0.001069533
1705916862339,-4.6550155,-4.2331157,-7.5010304,-4.5165728E-4,0.0018964907,-0.001069533
1705916862346,-4.6550155,-4.2331157,-7.5010304,6.871035E-4,0.003088628,-0.0012149261
1705916862609,-4.654967,-4.2386165,-7.5169053,6.871035E-4,0.003088628,-0.0012149261
1705916862615,-4.654967,-4.2386165,-7.5169053,3.6376534E-4,0.0026739521,-4.342312E-4
1705916862967,-4.666306,-4.2620597,-7.5112195,3.6376534E-4,0.0026739521,-4.342312E-4
1705916862974,-4.666306,-4.2620597,-7.5112195,-1.9888114E-4,0.0024222485,-8.8817027E-4
1705916863277,-4.650225,-4.2563105,-7.514485,-1.9888114E-4,0.0024222485,-8.8817027E-4
1705916863283,-4.650225,-4.2563105,-7.514485,-1.4891173E-4,0.0025621704,-0.0010686091
1705916863511,-4.6654987,-4.237908,-7.499763,-1.4891173E-4,0.0025621704,-0.0010686091
1705916863516,-4.6654987,-4.237908,-7.499763,-2.9520522E-4,0.0028156496,-5.1941985E-4
1705916863867,-4.6604857,-4.2321715,-7.4968085,-2.9520522E-4,0.0028156496,-5.1941985E-4
1705916863877,-4.6604857,-4.2321715,-7.4968085,5.0568115E-4,0.0029555461,-0.0012684466
1705916864095,-4.6445866,-4.269529,-7.4945087,5.0568115E-4,0.0029555461,-0.0012684466
1705916864102,-4.6445866,-4.269529,-7.4945087,8.24386E-4,0.0029698126,-0.002058244
1705916864423,-4.65372,-4.2688274,-7.520731,8.24386E-4,0.0029698126,-0.002058244
1705916864430,-4.65372,-4.2688274,-7.520731,-3.0788168E-4,0.0029545692,-8.113646E-4
1705916864815,-4.647855,-4.2625213,-7.5003114,-3.0788168E-4,0.0029545692,-8.113646E-4
1705916864821,-4.647855,-4.2625213,-7.5003114,1.7193076E-4,0.0024401322,-0.0018635924
1705916865025,-4.64786,-4.2484126,-7.476365,1.7193076E-4,0.0024401322,-0.0018635924
1705916865033,-4.64786,-4.2484126,-7.476365,2.7321986E-4,0.0030915746,-0.0011338585
1705916865341,-4.64053,-4.2637434,-7.493257,2.7321986E-4,0.0030915746,-0.0011338585
1705916865344,-4.64053,-4.2637434,-7.493257,-8.98806E-5,0.0018899274,-9.649759E-4
1705916865743,-4.6377077,-4.2636633,-7.498202,-8.98806E-5,0.0018899274,-9.649759E-4
1705916865748,-4.6377077,-4.2636633,-7.498202,-0.0012969613,0.0024174864,-1.19775184E-4
1705916865921,-4.6462216,-4.263674,-7.4934187,-0.0012969613,0.0024174864,-1.19775184E-4
1705916865927,-4.6462216,-4.263674,-7.4934187,1.941275E-4,0.0020301305,-0.001276904
1705916866183,-4.666727,-4.2296667,-7.5178804,1.941275E-4,0.0020301305,-0.001276904
1705916866186,-4.666727,-4.2296667,-7.5178804,-7.093713E-4,0.002178421,-0.0015276372
1705916866513,-4.631076,-4.2512193,-7.490359,-7.093713E-4,0.002178421,-0.0015276372
1705916866517,-4.631076,-4.2512193,-7.490359,-0.0011962575,0.0034963945,-7.559613E-4
1705916866870,-4.641359,-4.261792,-7.492734,-0.0011962575,0.0034963945,-7.559613E-4
1705916866882,-4.641359,-4.261792,-7.492734,4.5494686E-4,0.0020165595,-8.126991E-4
1705916867081,-4.6530666,-4.26718,-7.5076036,4.5494686E-4,0.0020165595,-8.126991E-4
1705916867090,-4.6530666,-4.26718,-7.5076036,-3.161229E-5,0.0024260036,-0.001138496
1705916867371,-4.6521864,-4.25071,-7.5020137,-3.161229E-5,0.0024260036,-0.001138496
1705916867378,-4.6521864,-4.25071,-7.5020137,3.6529335E-4,0.002806002,-4.3122924E-4
1705916867785,-4.6418114,-4.268083,-7.4736156,3.6529335E-4,0.002806002,-4.3122924E-4
1705916867789,-4.6418114,-4.268083,-7.4736156,-3.161229E-5,0.0024260036,-0.001138496
1705916868007,-4.633485,-4.2660184,-7.482715,-3.161229E-5,0.0024260036,-0.001138496
1705916868013,-4.633485,-4.2660184,-7.482715,3.4900228E-4,0.00281298,-7.298896E-4
1705916868309,-4.6484237,-4.2703066,-7.501339,3.4900228E-4,0.00281298,-7.298896E-4
1705916868317,-4.6484237,-4.2703066,-7.501339,4.4843156E-4,0.0026879378,-0.0010925394
1705916868739,-4.650267,-4.2690525,-7.512593,4.4843156E-4,0.0026879378,-0.0010925394
1705916868746,-4.650267,-4.2690525,-7.512593,-4.5529398E-4,0.0036128215,-2.5460246E-4
1705916868914,-4.657014,-4.254366,-7.510614,-4.5529398E-4,0.0036128215,-2.5460246E-4
1705916868920,-4.657014,-4.254366,-7.510614,5.863998E-4,0.0020097198,-5.7873985E-4
1705916869164,-4.6500764,-4.2471848,-7.4862885,5.863998E-4,0.0020097198,-5.7873985E-4
1705916869172,-4.6500764,-4.2471848,-7.4862885,-1.7541001E-4,0.0032161972,-5.750183E-4
1705916869471,-4.6497955,-4.2508345,-7.4977584,-1.7541001E-4,0.0032161972,-5.750183E-4
1705916869477,-4.6497955,-4.2508345,-7.4977584,-0.001423781,0.0028247354,-3.446318E-4
1705916869813,-4.648915,-4.267124,-7.5121756,-0.001423781,0.0028247354,-3.446318E-4
1705916869817,-4.648915,-4.267124,-7.5121756,-2.2102857E-4,0.0028365094,-0.0014747619
1705916870064,-4.645267,-4.2595897,-7.5016794,-2.2102857E-4,0.0028365094,-0.0014747619
1705916870071,-4.645267,-4.2595897,-7.5016794,-6.0161634E-4,0.0021542253,-5.181598E-4
1705916870354,-4.6603513,-4.247944,-7.490622,-6.0161634E-4,0.0021542253,-5.181598E-4
1705916870361,-4.6603513,-4.247944,-7.490622,5.703643E-4,0.0029521803,-0.0011533238
1705916870755,-4.6503463,-4.243127,-7.492741,5.703643E-4,0.0029521803,-0.0011533238
1705916870761,-4.6503463,-4.243127,-7.492741,6.966747E-4,0.0026813494,-9.290819E-4
1705916870984,-4.6433444,-4.2545786,-7.508215,6.966747E-4,0.0026813494,-9.290819E-4
1705916870988,-4.6433444,-4.2545786,-7.508215,-1.2956464E-4,0.0028192918,-7.639448E-4
1705916871305,-4.664767,-4.262754,-7.524431,-1.2956464E-4,0.0028192918,-7.639448E-4
1705916871311,-4.664767,-4.262754,-7.524431,-2.1822826E-4,0.0021651266,-0.0011928345
1705916871717,-4.660778,-4.262257,-7.5053678,-2.1822826E-4,0.0021651266,-0.0011928345
1705916871724,-4.660778,-4.262257,-7.5053678,-1.6866796E-4,0.0017682259,-0.0013838481
1705916871893,-4.6511493,-4.24806,-7.4901934,-1.6866796E-4,0.0017682259,-0.0013838481
1705916871899,-4.6511493,-4.24806,-7.4901934,-3.3955145E-4,0.0016325294,-0.001140238
1705916872150,-4.6418047,-4.2541356,-7.485537,-3.3955145E-4,0.0016325294,-0.001140238
1705916872154,-4.6418047,-4.2541356,-7.485537,1.0294598E-4,0.002687523,-8.9843606E-4
1705916872474,-4.649987,-4.267431,-7.4981356,1.0294598E-4,0.002687523,-8.9843606E-4
1705916872480,-4.649987,-4.267431,-7.4981356,3.8374835E-4,0.0026913036,-0.0012076622
1705916872842,-4.6561604,-4.258499,-7.501129,3.8374835E-4,0.0026913036,-0.0012076622
1705916872848,-4.6561604,-4.258499,-7.501129,-1.548173E-4,0.0029651937,-0.0013566371
1705916873040,-4.6513124,-4.2487564,-7.5024476,-1.548173E-4,0.0029651937,-0.0013566371
1705916873047,-4.6513124,-4.2487564,-7.5024476,-0.0010548795,0.001878439,3.1577714E-5
1705916873369,-4.6393366,-4.243292,-7.491089,-0.0010548795,0.001878439,3.1577714E-5
1705916873379,-4.6393366,-4.243292,-7.491089,2.2834807E-5,0.0013576113,-0.0010438687
1705916873791,-4.6447115,-4.248078,-7.49269,2.2834807E-5,0.0013576113,-0.0010438687
1705916873798,-4.6447115,-4.248078,-7.49269,-0.0012187099,0.002970914,-0.0010667263
1705916873942,-4.653033,-4.264251,-7.5075374,-0.0012187099,0.002970914,-0.0010667263
1705916873958,-4.653033,-4.264251,-7.5075374,2.507674E-4,0.0025660936,-0.0014446233
1705916874275,-4.6650248,-4.2571516,-7.512917,2.507674E-4,0.0025660936,-0.0014446233
1705916874280,-4.6650248,-4.2571516,-7.512917,-4.547133E-4,0.0016323911,-0.001075537
1705916874542,-4.6490135,-4.2519875,-7.4903874,-4.547133E-4,0.0016323911,-0.001075537
1705916874546,-4.6490135,-4.2519875,-7.4903874,-3.333901E-4,0.0021649883,-0.0011281334
1705916874895,-4.63733,-4.2444186,-7.4855266,-3.333901E-4,0.0021649883,-0.0011281334
1705916874902,-4.63733,-4.2444186,-7.4855266,-8.451751E-4,0.0024250266,-6.814141E-4
1705916875119,-4.636026,-4.269748,-7.48924,-8.451751E-4,0.0024250266,-6.814141E-4
1705916875123,-4.636026,-4.269748,-7.48924,-7.0784334E-4,0.002310471,-0.0015246354
1705916875444,-4.6510606,-4.2683063,-7.502041,-7.0784334E-4,0.002310471,-0.0015246354
1705916875451,-4.6510606,-4.2683063,-7.502041,4.8198324E-4,0.0029381902,-4.9292843E-4
1705916875816,-4.6368933,-4.2577543,-7.500727,4.8198324E-4,0.0029381902,-4.9292843E-4
1705916875821,-4.6368933,-4.2577543,-7.500727,5.716367E-4,0.0021487477,-8.743983E-4
1705916876024,-4.656794,-4.2482195,-7.4803033,5.716367E-4,0.0021487477,-8.743983E-4
1705916876032,-4.656794,-4.2482195,-7.4803033,-4.3933466E-4,0.0029614088,-0.0010453239
1705916876335,-4.6419177,-4.263898,-7.485759,-4.3933466E-4,0.0029614088,-0.0010453239
1705916876342,-4.6419177,-4.263898,-7.485759,-1.02456805E-4,0.00189691,-0.0012657235
1705916876786,-4.6442943,-4.272203,-7.505956,-1.02456805E-4,0.00189691,-0.0012657235
1705916876790,-4.6442943,-4.272203,-7.505956,-1.6128368E-4,0.0014929925,-0.001092915
1705916876942,-4.6502085,-4.2688737,-7.5204635,-1.6128368E-4,0.0014929925,-0.001092915
1705916876949,-4.6502085,-4.2688737,-7.5204635,3.5157456E-5,0.0024225295,-0.0010196596
1705916877262,-4.657028,-4.2459364,-7.4946723,3.5157456E-5,0.0024225295,-0.0010196596
1705916877269,-4.657028,-4.2459364,-7.4946723,-4.4086267E-4,0.002829359,-0.0010483259
1705916877520,-4.6412473,-4.247327,-7.48453,-4.4086267E-4,0.002829359,-0.0010483259
1705916877528,-4.6412473,-4.247327,-7.48453,-5.1646377E-5,0.0025448487,-3.5616552E-4
1705916877876,-4.6446176,-4.249105,-7.4905324,-5.1646377E-5,0.0025448487,-3.5616552E-4
1705916877883,-4.6446176,-4.249105,-7.4905324,-9.7823504E-5,0.0022973192,-0.0012566209
1705916878137,-4.649222,-4.256589,-7.502731,-9.7823504E-5,0.0022973192,-0.0012566209
1705916878144,-4.649222,-4.256589,-7.502731,-6.222357E-4,0.0027005363,-0.0011017495
1705916878427,-4.650279,-4.2378387,-7.5105534,-6.222357E-4,0.0027005363,-0.0011017495
1705916878430,-4.650279,-4.2378387,-7.5105534,1.0447399E-4,0.0028195728,-8.954342E-4
1705916878802,-4.663151,-4.246071,-7.4856324,1.0447399E-4,0.0028195728,-8.954342E-4
1705916878809,-4.663151,-4.246071,-7.4856324,7.19049E-4,0.0014904953,-0.0014311605
1705916879024,-4.647477,-4.243276,-7.4876347,7.19049E-4,0.0014904953,-0.0014311605
1705916879030,-4.647477,-4.243276,-7.4876347,-8.8556844E-5,0.0030981377,-0.0012384156
1705916879337,-4.6485543,-4.263371,-7.505545,-8.8556844E-5,0.0030981377,-0.0012384156
1705916879345,-4.6485543,-4.263371,-7.505545,-1.3262065E-4,0.0025551922,-7.699487E-4
1705916879752,-4.6585274,-4.2611256,-7.5133224,-1.3262065E-4,0.0025551922,-7.699487E-4
1705916879758,-4.6585274,-4.2611256,-7.5133224,-5.760365E-4,0.0010997937,-0.0010229404
1705916879929,-4.657736,-4.2571683,-7.515892,-5.760365E-4,0.0010997937,-0.0010229404
1705916879937,-4.657736,-4.2571683,-7.515892,5.956171E-4,0.0028062786,-5.606314E-4
1705916880208,-4.6432767,-4.2481527,-7.490137,5.956171E-4,0.0028062786,-5.606314E-4
1705916880214,-4.6432767,-4.2481527,-7.490137,2.338404E-4,0.0028128417,-6.6518853E-4
1705916880499,-4.639087,-4.254005,-7.492662,2.338404E-4,0.0028128417,-6.6518853E-4
1705916880505,-4.639087,-4.254005,-7.492662,-6.6691835E-5,0.0020437015,-0.001741109
1705916880855,-4.6603107,-4.263258,-7.5045385,-6.6691835E-5,0.0020437015,-0.001741109
1705916880867,-4.6603107,-4.263258,-7.5045385,3.154506E-4,0.002562728,-0.0013295005
1705916881091,-4.6514807,-4.268103,-7.5107627,3.154506E-4,0.002562728,-0.0013295005
1705916881095,-4.6514807,-4.268103,-7.5107627,-2.8879032E-4,0.0022762083,-2.307769E-4
1705916881379,-4.6475673,-4.251655,-7.505757,-2.8879032E-4,0.0022762083,-2.307769E-4
1705916881387,-4.6475673,-4.251655,-7.505757,-2.084655E-5,0.0016467962,-0.0019300355
1705916881837,-4.6384106,-4.2551074,-7.4874725,-2.084655E-5,0.0016467962,-0.0019300355
1705916881842,-4.6384106,-4.2551074,-7.4874725,6.2450644E-4,9.4404595E-4,-7.828697E-4
1705916881998,-4.6372185,-4.2621436,-7.479384,6.2450644E-4,9.4404595E-4,-7.828697E-4
1705916882006,-4.6372185,-4.2621436,-7.479384,3.4594626E-4,0.0025488804,-7.358935E-4
1705916882321,-4.654534,-4.2741675,-7.5002604,3.4594626E-4,0.0025488804,-7.358935E-4
1705916882327,-4.654534,-4.2741675,-7.5002604,-4.7441426E-4,0.002579107,-0.0016479369
1705916882744,-4.6482506,-4.2645,-7.499026,-4.7441426E-4,0.002579107,-0.0016479369
1705916882748,-4.6482506,-4.2645,-7.499026,-3.0752784E-4,0.0017507317,-5.4362894E-4
1705916882922,-4.642729,-4.247023,-7.4971347,-3.0752784E-4,0.0017507317,-5.4362894E-4
1705916882927,-4.642729,-4.247023,-7.4971347,6.335195E-4,0.0028167649,-0.0010412028
1705916883168,-4.647301,-4.246307,-7.4833403,6.335195E-4,0.0028167649,-0.0010412028
1705916883174,-4.647301,-4.246307,-7.4833403,1.5683452E-4,0.0017512894,-8.0452044E-4
1705916883502,-4.6519003,-4.267331,-7.50154,1.5683452E-4,0.0017512894,-8.0452044E-4
1705916883505,-4.6519003,-4.267331,-7.50154,2.658351E-4,0.0012189685,-8.813261E-4
1705916883869,-4.654355,-4.254414,-7.509868,2.658351E-4,0.0012189685,-8.813261E-4
1705916883875,-4.654355,-4.254414,-7.509868,1.9871152E-4,0.0024262802,-0.0012678981
1705916884092,-4.6514406,-4.2506585,-7.504673,1.9871152E-4,0.0024262802,-0.0012678981
1705916884096,-4.6514406,-4.2506585,-7.504673,2.263778E-4,0.0013717398,-0.0017689652
1705916884395,-4.64365,-4.2481785,-7.488808,2.263778E-4,0.0013717398,-0.0017689652
1705916884401,-4.64365,-4.2481785,-7.488808,4.6110814E-4,0.0025490187,-8.005946E-4
1705916884818,-4.642892,-4.2471504,-7.4914446,4.6110814E-4,0.0025490187,-8.005946E-4
1705916884822,-4.642892,-4.2471504,-7.4914446,-3.4453865E-4,0.0024359575,-0.0014170763
1705916884969,-4.6526675,-4.2740383,-7.5069075,-3.4453865E-4,0.0024359575,-0.0014170763
1705916884976,-4.6526675,-4.2740383,-7.5069075,-3.7154614E-4,0.0032264027,-9.2410034E-4
1705916885299,-4.6670446,-4.2522984,-7.5105195,-3.7154614E-4,0.0032264027,-9.2410034E-4
1705916885307,-4.6670446,-4.2522984,-7.5105195,0.0011720853,0.0025428748,-8.9222786E-4
1705916885588,-4.6504364,-4.250937,-7.4929185,0.0011720853,0.0025428748,-8.9222786E-4
1705916885595,-4.6504364,-4.250937,-7.4929185,7.711338E-4,0.0033423842,-7.95139E-4
1705916885956,-4.639871,-4.2481484,-7.4920506,7.711338E-4,0.0033423842,-7.95139E-4
1705916885961,-4.639871,-4.2481484,-7.4920506,2.9908214E-4,0.0026773177,-5.49354E-4
1705916886151,-4.646881,-4.247079,-7.4925632,2.9908214E-4,0.0026773177,-5.49354E-4
1705916886158,-4.646881,-4.247079,-7.4925632,-9.293662E-5,0.0016258279,-9.709798E-4
1705916886481,-4.660857,-4.2690907,-7.505523,-9.293662E-5,0.0016258279,-9.709798E-4
1705916886484,-4.660857,-4.2690907,-7.505523,-1.8773266E-4,0.002151279,-5.992274E-4
1705916886883,-4.658461,-4.2505646,-7.5052066,-1.8773266E-4,0.002151279,-5.992274E-4
1705916886887,-4.658461,-4.2505646,-7.5052066,6.537851E-4,0.0034742912,-7.253489E-4
1705916887060,-4.63459,-4.2423353,-7.4926066,6.537851E-4,0.0034742912,-7.253489E-4
1705916887066,-4.63459,-4.2423353,-7.4926066,-3.063044E-4,0.0030908787,-8.082659E-4
1705916887342,-4.6351194,-4.260163,-7.481625,-3.063044E-4,0.0030908787,-8.082659E-4
1705916887348,-4.6351194,-4.260163,-7.481625,-9.471818E-5,0.0025656787,-0.0012505201
1705916887653,-4.6555176,-4.262531,-7.496006,-9.471818E-5,0.0025656787,-0.0012505201
1705916887659,-4.6555176,-4.262531,-7.496006,-8.830332E-5,0.002026237,-9.618772E-4
1705916887987,-4.6534996,-4.26325,-7.508365,-8.830332E-5,0.002026237,-9.618772E-4
1705916887993,-4.6534996,-4.26325,-7.508365,-4.550672E-4,0.0028362283,-0.0013432726
1705916888284,-4.6401024,-4.254702,-7.504439,-4.550672E-4,0.0028362283,-0.0013432726
1705916888291,-4.6401024,-4.254702,-7.504439,4.4227028E-4,0.0021554788,-0.0011046439
1705916888547,-4.6420875,-4.2463512,-7.4840293,4.4227028E-4,0.0021554788,-0.0011046439
1705916888553,-4.6420875,-4.2463512,-7.4840293,6.291398E-4,0.001344455,-7.737671E-4
1705916888903,-4.648912,-4.2432013,-7.4901876,6.291398E-4,0.001344455,-7.737671E-4
1705916888911,-4.648912,-4.2432013,-7.4901876,-1.4738372E-4,0.00269422,-0.0010656071
1705916889133,-4.652148,-4.261321,-7.507949,-1.4738372E-4,0.00269422,-0.0010656071
1705916889139,-4.652148,-4.261321,-7.507949,-4.836809E-4,0.0017782884,-0.0016661421
1705916889447,-4.6499214,-4.2574387,-7.507965,-4.836809E-4,0.0017782884,-0.0016661421
1705916889452,-4.6499214,-4.2574387,-7.507965,-7.8542985E-4,0.003229349,-8.4303285E-4
1705916889835,-4.649154,-4.2507315,-7.502598,-7.8542985E-4,0.003229349,-8.4303285E-4
1705916889841,-4.649154,-4.2507315,-7.502598,-4.8339844E-4,0.0024184634,-5.76857E-4
1705916890054,-4.643335,-4.2488995,-7.5002112,-4.8339844E-4,0.0024184634,-5.76857E-4
1705916890063,-4.643335,-4.2488995,-7.5002112,-3.6141637E-4,0.0026869653,-6.3754455E-4
1705916890353,-4.6521683,-4.267408,-7.4980307,-3.6141637E-4,0.0026869653,-6.3754455E-4
1705916890357,-4.6521683,-4.267408,-7.4980307,1.6058912E-6,0.002172277,-0.0016192705
1705916890782,-4.6532025,-4.278895,-7.50787,1.6058912E-6,0.002172277,-0.0016192705
1705916890787,-4.6532025,-4.278895,-7.50787,-6.977136E-4,0.0017710339,-0.0012380795
1705916890960,-4.654314,-4.269159,-7.50584,-6.977136E-4,0.0017710339,-0.0012380795
1705916890971,-4.654314,-4.269159,-7.50584,-0.0017187878,0.0028278243,-3.3035246E-4
1705916891268,-4.6560946,-4.2479386,-7.493014,-0.0017187878,0.0028278243,-3.3035246E-4
1705916891272,-4.6560946,-4.2479386,-7.493014,-4.4702398E-4,0.0022969,-0.0010604304
1705916891526,-4.6377583,-4.254029,-7.49229,-4.4702398E-4,0.0022969,-0.0010604304
1705916891532,-4.6377583,-4.254029,-7.49229,1.7809204E-4,0.0029725912,-0.0018514879
1705916891883,-4.652485,-4.2625523,-7.4965897,1.7809204E-4,0.0029725912,-0.0018514879
1705916891890,-4.652485,-4.2625523,-7.4965897,4.6133494E-4,0.0017724256,-0.0018892647
1705916892137,-4.655411,-4.2672844,-7.501807,4.6133494E-4,0.0017724256,-0.0018892647
1705916892144,-4.655411,-4.2672844,-7.501807,-5.5602455E-4,0.0028292206,-9.836247E-4
1705916892443,-4.653889,-4.250712,-7.5010567,-5.5602455E-4,0.0028292206,-9.836247E-4
1705916892447,-4.653889,-4.250712,-7.5010567,-3.6538483E-4,0.0037588615,-9.119958E-4
